Folder: ML-project

Note: README.md
# ML-project

Li-ion_Batteries/ — исходные .csv экспериментов
li-ion_batteries.csv — параметры батарей
li-ion_batteries_cycling_stats_aggregated.csv — агрегированные обработанные данные экспериментов
li-ion_batteries_cycling_stats+metadata_aggregated.csv — агрегированные обработанные данные экспериментов + метаданные о параметрах батарей

processing_many_csv.ipynb — агрегированние и обработка данных экспериментов
merge_csvs_notebook.ipynb — объединенеи метаданных и данных экспериментов
XGRegressor_sklearn.ipynb — обучение регрессора

File: li-ion_batteries_cycling_stats_aggregated.csv
,Internal_index,Cell ID,Cycle,Cycle_time,Min_current,Max_current,Min_voltage,Max_voltage,Charge_capacity,Charge_capacity_ratio,Discharge_capacity,Discharge_capacity_ratio,Charge_energy,Charge_energy_ratio,Discharge_energy,Discharge_energy_ratio
0,0,CALCE_CX2-16_prism_LCO_25C_0-100_0.5-0.5C_a,0,28594.592,-0.55,1.275,2.699,4.2,1.268,0.788644,1.269,0.788022,5.073,0.197122,4.725,0.21164
233,39,CALCE_CX2-33_prism_LCO_25C_0-100_0.5-0.5C_d,761,14507.8,-0.674,1.16275,2.699,4.2,1.0531,0.812577,1.0539,0.813822,4.2585,0.819257,3.8585,0.806374
466,98,CALCE_CX2-36_prism_LCO_25C_0-100_0.5-0.5C_f,1941,8151.43,-1.35015,1.17545,2.699,4.199,0.59025,0.431469,0.58965,0.433248,2.4242,0.44383,1.9805,0.404349
699,11,HNEI_18650_NMC_LCO_25C_0-100_0.5-1.5C_b,201,10699.7,-3.99675,1.2871,2.999,4.3007,2.29485,0.805776,2.3056,0.806154,9.2929,0.811182,8.03575,0.750864
932,20,HNEI_18650_NMC_LCO_25C_0-100_0.5-1.5C_f,381,10475.2,-3.99675,1.28785,2.9995,4.3017,2.0943,0.735616,2.0519,0.71946,8.50995,0.74064,7.15415,0.672699
1165,29,HNEI_18650_NMC_LCO_25C_0-100_0.5-1.5C_m,561,9421.44,-4.20105,1.34835,2.99915,4.29935,1.70015,0.598434,1.7201,0.602698,6.9824,0.609817,5.88975,0.55225
1398,38,HNEI_18650_NMC_LCO_25C_0-100_0.5-1.5C_s,741,9232.875,-4.204,1.348,2.999,4.2997,1.4551,0.511279,1.461,0.511376,6.0138,0.524444,4.9388,0.462911
1631,123,SNL_18650_LFP_15C_0-100_0.5-1C_a,2441,10620,-1.1,0.5492,1.99695,3.6,0.98935,0.95405,0.984,0.952565,3.31635,0.944829,3.09695,0.943042
1864,127,SNL_18650_LFP_15C_0-100_0.5-1C_b,2521,10700.6,-0.93405,0.5225,2.0296,3.5522,0.9441,0.906046,0.94175,0.902059,3.1654,0.898496,2.97555,0.89571
2097,181,SNL_18650_LFP_15C_0-100_0.5-2C_a,3601,8475.08,-2.199,0.549,1.99755,3.6,0.92675,0.898014,0.92675,0.895411,3.11515,0.893105,2.8103,0.853676
2330,36,SNL_18650_LFP_25C_0-100_0.5-0.5C_a,701,14478.3,-0.55085,0.548,1.99825,3.6,1.02815,0.961787,1.0312,0.963738,3.43705,0.96007,3.32225,0.96353
2563,115,SNL_18650_LFP_25C_0-100_0.5-1C_a,2281,10430.9,-1.099,0.5492,1.9947,3.6,0.97295,0.942781,0.97445,0.941498,3.25485,0.941524,3.0826,0.92515
2796,169,SNL_18650_LFP_25C_0-100_0.5-1C_b,3361,10138.8,-1.09935,0.54975,1.99575,3.6,0.946,0.908742,0.943,0.907603,3.17825,0.911196,2.9561,0.88453
3029,70,SNL_18650_LFP_25C_0-100_0.5-1C_d,1381,10774.8,-1.09975,0.549,1.99685,3.6,1.00755,0.960486,1.01,0.960076,3.39235,0.965381,3.15785,0.932069
3262,150,SNL_18650_LFP_25C_0-100_0.5-2C_a,2981,8583.62,-2.199,0.549,1.9941,3.6,0.94945,0.913811,0.95,0.914341,3.17115,0.912036,2.9467,0.880137
3495,1,SNL_18650_LFP_25C_0-100_0.5-3C_a,1,15409.2,-0.55,0.549,1.999,3.6,1.043,1.0,1.038,1.0,3.49,1.0,3.344,1.0
3728,4,SNL_18650_LFP_25C_0-100_0.5-3C_b,61,8802.04,-3.3,0.54935,1.99215,3.6,1.0327,0.984461,1.03445,0.98519,3.45175,0.982285,3.1493,0.931746
3961,33,SNL_18650_LFP_25C_0-100_0.5-3C_c,641,8496.67,-3.3,0.55,1.9938,3.6,0.9967,0.954693,0.9954,0.956196,3.34535,0.956087,2.9548,0.882293
4194,87,SNL_18650_LFP_25C_0-100_0.5-3C_d,1721,8160.49,-3.3,0.5491,1.997,3.6,0.9643,0.903749,0.9626,0.90555,3.22485,0.902308,2.93615,0.85652
4427,116,SNL_18650_LFP_25C_20-80_0.5-0.5C_a,2301,7493.75,-0.5505,0.54815,3.159,3.3903,0.48125,0.449346,0.4825,0.450093,1.6156,0.449652,1.5582,0.452176
4660,349,SNL_18650_LFP_25C_20-80_0.5-0.5C_a,6961,7810.28,-0.55125,0.54805,3.15895,3.39,0.55255,0.51592,0.5534,0.516231,1.85015,0.514932,1.79115,0.519777
4893,212,SNL_18650_LFP_25C_20-80_0.5-0.5C_b,4221,7396.91,-0.551,0.548,3.159,3.39,0.49845,0.476986,0.4996,0.477629,1.6727,0.478051,1.613,0.478635
5126,72,SNL_18650_LFP_25C_20-80_0.5-0.5C_c,1421,8122.28,-0.551,0.549,3.159,3.39,0.5727,0.539266,0.5765,0.5403,1.91625,0.539181,1.8675,0.543036
5359,7,SNL_18650_LFP_25C_20-80_0.5-0.5C_d,121,8236.74,-0.55025,0.549,3.159,3.39,0.5809,0.556418,0.58445,0.55715,1.9433,0.556341,1.8931,0.560255
5592,240,SNL_18650_LFP_25C_20-80_0.5-0.5C_d,4781,7711.15,-0.551,0.548,3.159,3.39,0.53995,0.517193,0.54495,0.519495,1.80925,0.517965,1.763,0.521752
5825,142,SNL_18650_LFP_25C_20-80_0.5-3C_a,2821,5645.42,-3.301,0.549,2.9809,3.4803,0.66,0.625,0.66,0.625592,2.21765,0.627163,2.0349,0.5985
6058,226,SNL_18650_LFP_25C_40-60_0.5-0.5C_a,4501,1722.47,-0.55045,0.5481,3.233,3.355,0.08515,0.0798032,0.08565,0.0798229,0.2856,0.0798434,0.2797,0.0809317
6291,459,SNL_18650_LFP_25C_40-60_0.5-0.5C_a,9161,1834.84,-0.551,0.548,3.233,3.355,0.0923,0.0865042,0.09285,0.0865331,0.3095,0.086525,0.30345,0.0878038
6524,692,SNL_18650_LFP_25C_40-60_0.5-0.5C_a,13821,1738.78,-0.55105,0.548,3.233,3.355,0.0858,0.0804124,0.08655,0.0806617,0.2877,0.0804305,0.28255,0.0817564
6757,925,SNL_18650_LFP_25C_40-60_0.5-0.5C_a,18481,1471.55,-0.551,0.54715,3.233,3.355,0.06635,0.0621837,0.0666,0.062069,0.22265,0.0622449,0.2176,0.062963
6990,198,SNL_18650_LFP_25C_40-60_0.5-0.5C_b,3941,2303.55,-0.551,0.54845,3.233,3.355,0.12955,0.121758,0.1302,0.121796,0.4341,0.121733,0.4251,0.123432
7223,431,SNL_18650_LFP_25C_40-60_0.5-0.5C_b,8601,2132.05,-0.551,0.548,3.233,3.355,0.1162,0.109211,0.1171,0.109542,0.38975,0.109296,0.38215,0.110961
7456,664,SNL_18650_LFP_25C_40-60_0.5-0.5C_b,13261,2359.75,-0.553,0.547,3.233,3.355,0.13375,0.125705,0.13475,0.126052,0.44795,0.125617,0.4398,0.1277
7689,897,SNL_18650_LFP_25C_40-60_0.5-0.5C_b,17921,1220.79,-0.55205,0.548,3.233,3.355,0.047,0.0441729,0.0473,0.044247,0.1586,0.0444756,0.15515,0.0450494
7922,220,SNL_18650_LFP_25C_40-60_0.5-3C_a,4381,2281.35,-3.3002,0.549,2.99415,3.362,0.22,0.2058,0.22,0.206186,0.7345,0.20511,0.67,0.194994
8155,453,SNL_18650_LFP_25C_40-60_0.5-3C_a,9041,2282.62,-3.30085,0.5488,3.03405,3.361,0.22,0.2058,0.22,0.206186,0.734,0.204971,0.678,0.197322
8388,53,SNL_18650_LFP_25C_40-60_0.5-3C_b,1041,2281.77,-3.3,0.549,3.02725,3.35815,0.22,0.209324,0.22,0.208927,0.734,0.208464,0.67565,0.199307
8621,286,SNL_18650_LFP_25C_40-60_0.5-3C_b,5701,2282.49,-3.3006,0.549,3.0514,3.39795,0.22,0.209324,0.22,0.208927,0.737,0.209316,0.678,0.2
8854,519,SNL_18650_LFP_25C_40-60_0.5-3C_b,10361,2282.82,-3.30095,0.549,2.9966,3.4412,0.22,0.209324,0.22,0.208927,0.745,0.211588,0.666,0.19646
9087,11,SNL_18650_LFP_35C_0-100_0.5-1C_b,201,10859.8,-1.0995,0.5495,1.9941,3.6,1.0189,0.974092,1.0186,0.974737,3.4094,0.97217,3.2322,0.961678
9320,76,SNL_18650_LFP_35C_0-100_0.5-1C_c,1501,10127.8,-1.09995,0.549,1.9956,3.6,0.9525,0.899433,0.9519,0.900568,3.18465,0.897337,3.011,0.885328
9553,141,SNL_18650_LFP_35C_0-100_0.5-1C_d,2801,9814.37,-1.1,0.55,1.99605,3.6,0.924,0.870877,0.92315,0.871719,3.096,0.870886,2.903,0.85282
9786,183,SNL_18650_LFP_35C_0-100_0.5-2C_a,3641,8044.61,-2.2,0.549,1.99335,3.6,0.8947,0.839306,0.8946,0.84,2.99135,0.83721,2.74295,0.801563
10019,14,SNL_18650_NCA_15C_0-100_0.5-1C_b,261,9648.54,-2.6,1.54375,2.5403,4.15635,2.50935,0.869792,2.5114,0.87353,9.9136,0.875373,8.23105,0.832344
10252,5,SNL_18650_NCA_25C_0-100_0.5-1C_b,81,11004.6,-3.25045,1.62405,2.499,4.2,2.86685,0.919747,2.87045,0.924461,11.1167,0.923007,9.732,0.888929
10485,9,SNL_18650_NCA_25C_20-80_0.5-0.5C_b,161,9132.98,-1.625,1.625,2.699,3.98,1.92665,0.610279,1.92535,0.61356,7.18415,0.589155,6.5095,0.588882
10718,32,SNL_18650_NCA_25C_40-60_0.5-0.5C_a,621,3480.45,-1.624,1.625,3.34995,3.8001,0.65,0.210356,0.65,0.21097,2.4162,0.20243,2.24165,0.206756
10951,265,SNL_18650_NCA_25C_40-60_0.5-0.5C_a,5281,3480.13,-1.62405,1.625,3.2485,3.82735,0.65,0.210356,0.65,0.21097,2.42585,0.203238,2.20355,0.203242
11184,103,SNL_18650_NCA_25C_40-60_0.5-0.5C_b,2041,15074.5,-1.54375,1.54375,3.07625,3.92155,1.3451,0.430019,1.35475,0.437298,5.17,0.428051,4.74175,0.433829
11417,4,SNL_18650_NCA_35C_0-100_0.5-1C_b,61,11947.9,-3.2493,1.625,2.499,4.2,3.02185,0.954771,3.02,0.957514,11.74475,0.955013,9.956,0.911805
11650,2,SNL_18650_NMC_15C_0-100_0.5-2C_b,21,9107.66,-6.001,1.49925,1.9982,4.201,2.5775,0.945872,2.5734,0.945755,10.00035,0.947272,8.2818,0.868022
11883,33,SNL_18650_NMC_25C_0-100_0.5-2C_a,641,8159.23,-6.001,1.4991,1.99625,4.2001,2.2576,0.773151,2.26055,0.775223,8.83675,0.7878,7.2845,0.699827
12116,15,SNL_18650_NMC_25C_20-80_0.5-0.5C_a,281,9238.15,-1.5,1.5,2.80355,4.031,1.8,0.607492,1.8,0.60955,6.72765,0.59332,6.28285,0.592889
12349,29,SNL_18650_NMC_25C_20-80_0.5-0.5C_b,561,8361.32,-1.5,1.499,3.179,4.02,1.6172,0.543414,1.61635,0.545143,6.0753,0.535599,5.79495,0.542497
12582,6,SNL_18650_NMC_25C_20-80_0.5-0.5C_d,101,9241.98,-1.4993,1.499,3.2821,4.0792,1.8,0.604839,1.8,0.606673,6.812,0.600547,6.53935,0.611669
12815,70,SNL_18650_NMC_25C_20-80_0.5-3C_a,1381,4651.83,-9.0003,1.5,2.949,4.02,1.44615,0.486428,1.44715,0.488078,5.4556,0.481476,4.73455,0.443185
13048,63,SNL_18650_NMC_25C_40-60_0.5-0.5C_a,1241,3479.69,-1.5,1.5,3.39865,3.788,0.6,0.20114,0.6,0.201952,2.2181,0.194964,2.1061,0.196942
13281,296,SNL_18650_NMC_25C_40-60_0.5-0.5C_a,5901,3479.47,-1.5,1.5,3.38965,3.78915,0.6,0.20114,0.6,0.201952,2.21445,0.194643,2.1036,0.196708
13514,529,SNL_18650_NMC_25C_40-60_0.5-0.5C_a,10561,3479.52,-1.5003,1.5,2.9246,3.77185,0.6,0.20114,0.6,0.201952,2.18195,0.191786,1.99185,0.186259
13747,204,SNL_18650_NMC_25C_40-60_0.5-0.5C_b,4061,3480.17,-1.499,1.5,3.44095,3.8067,0.6,0.201816,0.6,0.202361,2.2254,0.196469,2.12985,0.199331
13980,437,SNL_18650_NMC_25C_40-60_0.5-0.5C_b,8721,3480.84,-1.499,1.4998,3.274,3.78075,0.6,0.201816,0.6,0.202361,2.208,0.194932,2.05285,0.192124
14213,214,SNL_18650_NMC_25C_40-60_0.5-3C_a,4261,2280.27,-8.99915,1.5,3.0717,3.78315,0.6,0.203735,0.6,0.204221,2.211,0.196918,1.9191,0.181235
14446,447,SNL_18650_NMC_25C_40-60_0.5-3C_a,8921,2280.28,-8.99825,1.49995,3.02045,3.75605,0.6,0.203735,0.6,0.204221,2.19,0.195048,1.9091,0.180291
14679,33,SNL_18650_NMC_25C_40-60_0.5-3C_b,641,2280.31,-8.99975,1.4991,3.1633,3.80245,0.6,0.202977,0.6,0.203597,2.223,0.197319,1.9663,0.185133
14912,266,SNL_18650_NMC_25C_40-60_0.5-3C_b,5301,2280.22,-9,1.49965,2.9761,3.80525,0.6,0.202977,0.6,0.203597,2.2209,0.197133,1.8669,0.175774
15145,499,SNL_18650_NMC_25C_40-60_0.5-3C_b,9961,2280.22,-9,1.4997,2.85885,3.7816,0.6,0.202977,0.6,0.203597,2.20485,0.195708,1.8162,0.171001
15378,9,SNL_18650_NMC_35C_0-100_0.5-2C_a,161,9932.07,-6.0,1.5,1.9962,4.20105,2.5951,0.875245,2.59305,0.878702,10.0565,0.881299,8.63855,0.825313
15611,14,UL-PUR_R10-NA11_18650_NCA_23C_2.5-96.5_0.5-0.5C_k,261,15330.3,-1.6,1.599,2.8999,4,2.3388,0.928464,2.3376,0.925782,8.93335,0.935331,8.107,0.917185
15844,26,UL-PUR_R20-NA8_18650_NCA_23C_2.5-96.5_0.5-0.5C_h,501,15542.3,-1.59915,1.6,2.9,4,2.1744,0.842791,2.1741,0.843655,8.37335,0.856346,7.49315,0.832665
15925,40,UL-PUR_R20-OV1_18650_NCA_23C_2.5-96.5_0.5-0.5C_a,781,15204.7,-1.28,1.2808,2.34605,3.2,1.6399,0.597631,1.55815,0.568253,6.34175,0.613026,5.35765,0.565272