Folder: ML-project/Li-ion_Batteries (part 3)

File: CALCE_CX2-36_prism_LCO_25C_0-100_0.5-0.5C_f_cycle_data.csv
Cycle_Index,Start_Time,End_Time,Test_Time (s),Min_Current (A),Max_Current (A),Min_Voltage (V),Max_Voltage (V),Charge_Capacity (Ah),Discharge_Capacity (Ah),Charge_Energy (Wh),Discharge_Energy (Wh)
1.0,,,13640.301,-1.35,1.186,2.699,4.2,1.38,1.355,5.54,4.838
15.0,,,199145.034,-1.35,1.176,2.699,4.2,1.328,1.323,5.31,4.742
29.0,,,381286.917,-1.35,1.156,2.699,4.199,1.326,1.324,5.292,4.779
43.0,,,561435.591,-1.349,1.163,2.699,4.2,1.299,1.295,5.199,4.646
57.0,,,738311.526,-1.35,1.167,2.699,4.199,1.335,1.33,5.328,4.798
71.0,,,919626.864,-1.35,1.172,2.699,4.199,1.284,1.278,5.146,4.564
85.0,,,1098690.242,-1.351,1.16,2.699,4.199,1.269,1.266,5.087,4.531
99.0,,,1263605.201,-1.35,1.153,2.699,4.199,1.266,1.265,5.07,4.545
113.0,,,1440015.24,-1.35,1.155,2.699,4.199,1.25,1.25,5.008,4.489
127.0,,,1614858.222,-1.35,1.145,2.699,4.199,1.255,1.254,5.017,4.519
141.0,,,1788711.077,-1.35,1.14,2.699,4.199,1.242,1.243,4.969,4.476
155.0,,,1963947.043,-1.349,1.146,2.699,4.199,1.248,1.247,4.993,4.487
169.0,,,2137718.171,-1.35,1.143,2.699,4.199,1.244,1.241,4.973,4.473
183.0,,,2310297.744,-1.35,1.143,2.699,4.199,1.23,1.23,4.924,4.431
197.0,,,2482487.948,-1.35,1.154,2.699,4.199,1.232,1.24,4.944,4.46
211.0,,,2655856.057,-1.35,1.13,2.699,4.199,1.243,1.24,4.966,4.477
225.0,,,2827848.613,-1.35,1.154,2.699,4.199,1.21,1.22,4.851,4.393
239.0,,,2994631.209,-1.35,1.151,2.699,4.199,1.196,1.195,4.797,4.272
253.0,,,3154432.096,-1.35,1.156,2.699,4.199,1.221,1.204,4.895,4.291
267.0,,,3313917.134,-1.35,1.156,2.699,4.199,1.191,1.194,4.782,4.267
281.0,,,3479922.01,-1.349,1.139,2.699,4.199,1.2,1.198,4.807,4.308
295.0,,,3645321.124,-1.351,1.146,2.699,4.199,1.176,1.17,4.723,4.177
309.0,,,3814081.835,-1.349,1.166,2.699,4.199,1.182,1.191,4.754,4.261
323.0,,,3979793.339,-1.351,1.137,2.699,4.199,1.191,1.186,4.772,4.255
337.0,,,4147729.429,-1.35,1.15,2.699,4.199,1.157,1.153,4.651,4.104
351.0,,,4310942.156,-1.349,1.146,2.699,4.2,1.149,1.145,4.621,4.073
365.0,,,4473698.834,-1.349,1.164,2.699,4.199,1.144,1.141,4.603,4.058
379.0,,,4640165.155,-1.35,1.134,2.699,4.199,1.165,1.165,4.669,4.181
393.0,,,4805811.275,-1.35,1.156,2.699,4.199,1.136,1.139,4.57,4.058
407.0,,,4971664.411,-1.351,1.151,2.699,4.199,1.133,1.137,4.575,4.043
421.0,,,5133824.319,-1.351,1.145,2.699,4.199,1.153,1.149,4.627,4.111
435.0,,,5288618.89,-1.351,1.134,2.699,4.199,1.161,1.149,4.653,4.108
449.0,,,5450279.921,-1.351,1.133,2.699,4.199,1.154,1.154,4.628,4.14
463.0,,,5615447.672,-1.35,1.129,2.699,4.199,1.161,1.161,4.648,4.172
477.0,,,5776991.296,-1.35,1.135,2.699,4.199,1.153,1.155,4.625,4.143
491.0,,,5941717.088,-1.35,1.144,2.699,4.199,1.14,1.146,4.576,4.111
505.0,,,6105887.98,-1.351,1.138,2.699,4.199,1.133,1.131,4.549,4.044
519.0,,,6270240.089,-1.351,1.13,2.699,4.199,1.149,1.148,4.602,4.127
533.0,,,6430882.202,-1.35,1.152,2.699,4.199,1.133,1.13,4.55,4.039
547.0,,,6594474.809,-1.351,1.144,2.699,4.199,1.124,1.114,4.513,3.971
561.0,,,6757260.909,-1.35,1.137,2.699,4.199,1.13,1.132,4.534,4.063
575.0,,,6913383.948,-1.35,1.158,2.699,4.199,1.112,1.105,4.477,3.923
589.0,,,7068978.385,0.0,0.676,3.409,4.118,0.746,0.0,2.952,0.0
603.0,,,7226841.35,-1.349,1.14,2.699,4.2,1.111,1.096,4.463,3.897
617.0,,,7384158.072,-1.35,1.151,2.699,4.199,1.105,1.104,4.44,3.941
631.0,,,7545519.213,-1.35,1.155,2.699,4.199,1.112,1.11,4.463,3.975
645.0,,,7708226.968,-1.35,1.169,2.699,4.199,1.108,1.089,4.454,3.867
659.0,,,7869140.924,-1.35,1.148,2.699,4.199,1.1,1.097,4.421,3.917
673.0,,,8029104.551,-1.349,1.146,2.699,4.199,1.085,1.086,4.367,3.871
687.0,,,8185497.039,-1.35,1.142,2.699,4.199,1.095,1.093,4.4,3.909
701.0,,,8346634.201,-1.351,1.148,2.699,4.199,1.085,1.083,4.365,3.858
715.0,,,8501657.174,-1.35,1.154,2.699,4.199,1.072,1.067,4.32,3.796
729.0,,,8660770.815,-1.35,1.149,2.699,4.199,1.085,1.083,4.36,3.871
743.0,,,8817121.137,-1.351,1.148,2.699,4.199,1.093,1.093,4.393,3.905
757.0,,,8976438.703,-1.351,1.152,2.699,4.199,1.073,1.078,4.317,3.844
771.0,,,9131985.943,-1.35,1.179,2.699,4.199,1.048,1.045,4.227,3.703
785.0,,,9289082.043,-1.351,1.169,2.699,4.2,1.033,1.031,4.174,3.64
799.0,,,9445327.41,-1.349,1.161,2.699,4.199,1.035,1.033,4.177,3.66
813.0,,,9601328.037,-1.35,1.148,2.699,4.199,1.023,1.042,4.146,3.706
827.0,,,9758072.789,-1.35,1.168,2.699,4.199,1.039,1.037,4.19,3.68
841.0,,,9913675.724,-1.35,1.17,2.699,4.2,1.012,1.006,4.09,3.549
855.0,,,10067953.85,-1.35,1.176,2.699,4.199,1.0,0.998,4.045,3.517
869.0,,,10218663.95,-1.35,1.164,2.699,4.199,1.018,1.004,4.117,3.542
883.0,,,10368847.72,-1.349,1.171,2.699,4.199,0.986,0.985,3.992,3.464
897.0,,,10522042.57,-1.35,1.184,2.699,4.199,0.999,0.998,4.039,3.526
911.0,,,10675941.811,-1.35,1.169,2.699,4.2,0.982,0.978,3.973,3.442
925.0,,,10829377.85,-1.349,1.171,2.699,4.199,0.978,0.972,3.96,3.412
939.0,,,10966828.498,-1.35,1.174,2.699,4.2,0.98,0.978,3.969,3.44
953.0,,,11120259.789,-1.35,1.171,2.699,4.199,0.973,0.97,3.94,3.405
967.0,,,11273012.514,-1.349,1.178,2.699,4.199,0.959,0.957,3.885,3.357
981.0,,,11420413.778,-1.35,1.171,2.699,4.2,0.95,0.956,3.852,3.354
995.0,,,11575010.411,-1.35,1.176,2.699,4.2,0.966,0.962,3.915,3.369
1009.0,,,11714307.027,-1.349,1.178,2.699,4.2,0.961,0.955,3.896,3.347
1023.0,,,11866827.583,-1.349,1.175,2.699,4.2,0.948,0.944,3.845,3.309
1037.0,,,12014942.24,-1.35,1.176,2.699,4.2,0.956,0.952,3.875,3.341
1051.0,,,12166646.679,-1.35,1.175,2.699,4.2,0.937,0.936,3.804,3.272
1065.0,,,12317334.686,-1.349,1.173,2.699,4.2,0.932,0.93,3.78,3.254
1079.0,,,12467559.281,-1.349,1.175,2.699,4.199,0.926,0.922,3.757,3.225
1093.0,,,12619047.002,-1.35,1.197,2.699,4.199,0.924,0.921,3.751,3.216
1107.0,,,12769670.621,-1.35,1.198,2.699,4.2,0.927,0.923,3.762,3.232
1121.0,,,12918843.832,-1.35,1.186,2.699,4.199,0.917,0.915,3.719,3.202
1135.0,,,13068716.156,-1.35,1.206,2.699,4.2,0.932,0.915,3.78,3.198
1149.0,,,13218745.354,-1.349,1.189,2.699,4.2,0.919,0.916,3.729,3.2
1163.0,,,13368639.944,-1.35,1.192,2.699,4.199,0.907,0.905,3.684,3.16
1177.0,,,13517519.292,-1.35,1.183,2.699,4.199,0.895,0.882,3.635,3.069
1191.0,,,13666636.415,-1.349,1.189,2.699,4.199,0.892,0.894,3.624,3.119
1205.0,,,13813835.799,-1.35,1.184,2.699,4.199,0.876,0.878,3.563,3.059
1219.0,,,13961065.329,-1.35,1.187,2.699,4.199,0.902,0.902,3.658,3.15
1233.0,,,14106455.726,-1.35,1.18,2.699,4.199,0.916,0.908,3.714,3.179
1247.0,,,14256474.694,-1.35,1.192,2.699,4.199,0.892,0.89,3.623,3.096
1261.0,,,14404843.33,-1.349,1.183,2.699,4.199,0.874,0.873,3.552,3.034
1275.0,,,14551640.858,-1.35,1.193,2.699,4.2,0.868,0.866,3.527,3.009
1289.0,,,14694717.096,-1.35,1.173,2.699,4.199,0.888,0.885,3.606,3.081
1303.0,,,14843107.233,-1.35,1.185,2.699,4.199,0.881,0.875,3.577,3.044
1317.0,,,14984975.189,-1.349,1.18,2.699,4.199,0.866,0.864,3.516,3.004
1331.0,,,15130426.865,-1.35,1.174,2.699,4.199,0.858,0.855,3.485,2.974
1345.0,,,15279486.35,-1.35,1.185,2.699,4.199,0.867,0.866,3.521,3.013
1359.0,,,15411217.71,-1.35,1.145,2.699,4.199,0.444,0.895,1.846,3.13
1373.0,,,15559272.98,-1.35,1.197,2.699,4.199,0.873,0.87,3.545,3.029
1387.0,,,15701173.024,-1.349,1.185,2.699,4.199,0.859,0.856,3.489,2.977
1401.0,,,15841299.195,-1.35,0.676,2.699,4.197,0.603,0.618,2.417,2.124
1415.0,,,15984007.086,-1.35,1.201,2.699,4.199,0.871,0.869,3.536,3.023
1429.0,,,16120559.51,-1.35,1.205,2.699,4.199,0.88,0.875,3.569,3.039
1443.0,,,16265711.78,-1.349,1.188,2.699,4.199,0.842,0.84,3.424,2.914
1457.0,,,16405428.051,-1.35,1.185,2.699,4.199,0.839,0.834,3.409,2.892
1471.0,,,16549748.881,-1.35,1.194,2.699,4.199,0.833,0.834,3.387,2.89
1485.0,,,16695811.219,-1.35,1.188,2.699,4.199,0.831,0.829,3.382,2.87
1499.0,,,16839444.822,-1.35,1.21,2.699,4.199,0.814,0.811,3.315,2.804
1513.0,,,16982708.998,-1.35,1.217,2.699,4.199,0.82,0.819,3.334,2.836
1527.0,,,17125779.298,-1.35,1.192,2.699,4.199,0.813,0.81,3.308,2.801
1541.0,,,17269586.312,-1.35,1.194,2.699,4.2,0.799,0.798,3.252,2.752
1555.0,,,17410858.126,-1.35,1.191,2.699,4.2,0.796,0.793,3.242,2.736
1569.0,,,17552094.885,-1.35,1.202,2.699,4.199,0.8,0.799,3.255,2.762
1583.0,,,17698484.469,-1.349,1.207,2.699,4.199,0.855,0.854,3.473,2.965
1597.0,,,17841184.991,-1.35,1.191,2.699,4.199,0.866,0.865,3.514,3.01
1611.0,,,17992549.816,-1.35,1.217,2.699,4.199,0.824,0.82,3.353,2.833
1625.0,,,18122641.043,-1.35,1.194,2.699,4.199,0.825,0.833,3.353,2.881
1639.0,,,18273372.552,-1.35,1.197,2.699,4.199,0.864,0.863,3.504,3.001
1653.0,,,18410341.944,-1.349,1.195,2.699,4.199,0.821,0.8,3.337,2.759
1667.0,,,18548060.511,-1.35,1.221,2.699,4.199,0.769,0.769,3.134,2.645
1681.0,,,18690452.906,-1.35,1.211,2.699,4.199,0.763,0.759,3.113,2.603
1695.0,,,18835201.862,-1.35,1.189,2.699,4.199,0.817,0.817,3.321,2.821
1709.0,,,18981774.156,-1.349,1.181,2.699,4.199,0.759,0.775,3.096,2.66
1723.0,,,19118292.76,-1.35,1.188,2.699,4.199,0.747,0.744,3.05,2.546
1737.0,,,19258167.23,-1.35,1.187,2.699,4.199,0.76,0.762,3.1,2.61
1751.0,,,19404457.596,-1.349,1.183,2.699,4.2,0.748,0.765,3.057,2.615
1765.0,,,19545194.349,-1.35,1.181,2.699,4.199,0.708,0.705,2.897,2.395
1779.0,,,19676081.555,-1.35,1.186,2.699,4.199,0.719,0.723,2.938,2.465
1793.0,,,19805223.221,-1.35,1.194,2.699,4.199,0.717,0.717,2.93,2.442
1807.0,,,19943067.688,-1.35,1.184,2.699,4.2,0.676,0.673,2.77,2.279
1821.0,,,20062729.386,-1.349,1.202,3.599,4.199,0.674,0.124,2.766,0.466
1835.0,,,20192428.748,-1.35,1.176,2.699,4.199,0.682,0.684,2.793,2.319
1849.0,,,20319860.689,-1.35,1.172,2.699,4.199,0.615,0.611,2.524,2.06
1863.0,,,20442700.641,-1.35,1.167,2.699,4.199,0.628,0.632,2.576,2.136
1877.0,,,20574083.22,-1.349,1.168,2.699,4.199,0.678,0.677,2.776,2.294
1891.0,,,20702051.418,-1.349,1.178,2.699,4.199,0.63,0.623,2.583,2.099
1905.0,,,20820848.938,-1.35,1.176,2.699,4.199,0.671,0.667,2.747,2.26
1919.0,,,20951902.223,-1.35,1.182,2.699,4.199,0.605,0.601,2.485,2.021
1933.0,,,21068744.936,-1.351,1.159,2.699,4.199,0.574,0.561,2.359,1.878
1947.0,,,21187366.75,-1.35,1.183,2.699,4.199,0.607,0.608,2.489,2.046
1961.0,,,21313444.326,-1.35,1.19,2.699,4.199,0.631,0.63,2.586,2.122
1971.0,,,21400171.829,-1.35,1.197,2.699,4.199,0.548,0.541,2.254,1.808

File: CALCE_CX2-37_prism_LCO_25C_0-100_0.5-0.5C_g_cycle_data.csv
Cycle_Index,Start_Time,End_Time,Test_Time (s),Min_Current (A),Max_Current (A),Min_Voltage (V),Max_Voltage (V),Charge_Capacity (Ah),Discharge_Capacity (Ah),Charge_Energy (Wh),Discharge_Energy (Wh)
1.0,,,13549.071,-1.35,1.172,2.699,4.2,1.373,1.366,5.512,4.899
10.0,,,133582.772,-1.35,1.159,2.699,4.2,1.343,1.343,5.369,4.826
19.0,,,248220.634,-1.35,0.675,2.699,4.197,1.133,1.138,4.48,4.055
28.0,,,365500.362,-1.35,1.146,2.699,4.2,1.327,1.328,5.296,4.793
37.0,,,481611.268,-1.35,1.139,2.699,4.2,1.323,1.325,5.273,4.791
46.0,,,593818.359,-1.35,1.147,2.699,4.2,1.308,1.314,5.223,4.741
55.0,,,710025.493,-1.35,1.163,2.699,4.199,1.336,1.336,5.34,4.803
64.0,,,827341.237,-1.35,1.153,2.699,4.2,1.312,1.308,5.245,4.691
73.0,,,939860.696,-1.35,1.142,2.699,4.199,1.291,1.291,5.169,4.622
82.0,,,1055326.204,-1.35,1.137,2.699,4.199,1.282,1.283,5.134,4.598
91.0,,,1170197.674,-1.35,1.138,2.699,4.199,1.272,1.272,5.096,4.558
100.0,,,1272008.221,-1.35,1.131,2.699,4.199,1.273,1.275,5.093,4.583
109.0,,,1385666.403,-1.35,1.13,2.699,4.199,1.258,1.259,5.04,4.511
118.0,,,1498869.806,-1.35,1.129,2.699,4.199,1.248,1.248,5.001,4.465
127.0,,,1611339.086,-1.35,1.128,2.699,4.2,1.259,1.261,5.033,4.54
136.0,,,1723343.014,-1.35,1.126,2.699,4.199,1.248,1.245,4.992,4.465
145.0,,,1831477.094,-1.35,1.13,2.699,4.199,1.238,1.24,4.96,4.446
154.0,,,1941109.503,-1.349,1.134,2.699,4.199,1.249,1.254,5.006,4.492
163.0,,,2053632.874,-1.35,1.128,2.699,4.2,1.248,1.253,4.993,4.503
172.0,,,2165177.159,-1.35,1.122,2.699,4.2,1.248,1.251,4.989,4.508
181.0,,,2276427.272,-1.35,1.123,2.699,4.199,1.23,1.232,4.928,4.414
190.0,,,2387521.885,-1.35,1.12,2.699,4.2,1.229,1.235,4.921,4.439
199.0,,,2499072.764,-1.35,1.124,2.699,4.2,1.256,1.254,5.021,4.509
208.0,,,2610934.606,-1.35,1.122,2.699,4.2,1.247,1.251,4.983,4.51
217.0,,,2721946.029,-1.35,1.118,2.699,4.2,1.244,1.247,4.969,4.501
226.0,,,2832557.934,-1.35,1.122,2.699,4.2,1.231,1.235,4.922,4.449
235.0,,,2942894.748,-1.349,1.122,2.699,4.199,1.218,1.215,4.877,4.351
244.0,,,3052938.97,-1.35,1.12,2.699,4.199,1.208,1.211,4.841,4.34
253.0,,,3152517.656,-1.35,1.129,2.699,4.199,1.235,1.228,4.946,4.388
262.0,,,3251517.252,-1.35,1.126,2.699,4.199,1.227,1.231,4.91,4.421
271.0,,,3358263.298,-1.35,1.135,2.699,4.199,1.202,1.203,4.822,4.292
280.0,,,3468073.382,-1.35,1.124,2.699,4.2,1.209,1.212,4.84,4.352
289.0,,,3577270.131,-1.35,1.118,2.699,4.2,1.211,1.214,4.842,4.368
298.0,,,3686244.669,-1.35,1.132,2.699,4.2,1.202,1.2,4.813,4.304
307.0,,,3795447.142,-1.35,1.145,2.699,4.199,1.173,1.204,4.735,4.296
316.0,,,3901996.413,-1.349,1.133,2.699,4.199,1.193,1.195,4.791,4.255
325.0,,,4011474.075,-1.35,1.123,2.699,4.2,1.203,1.204,4.819,4.321
334.0,,,4116775.516,-1.35,1.128,2.699,4.199,1.189,1.186,4.77,4.232
343.0,,,4225597.196,-1.35,1.133,2.699,4.199,1.176,1.176,4.723,4.191
352.0,,,4334047.928,-1.35,1.132,2.699,4.199,1.168,1.172,4.694,4.174
361.0,,,4442179.985,-1.35,1.145,2.699,4.199,1.176,1.179,4.719,4.217
370.0,,,4546208.831,-1.35,1.129,2.699,4.2,1.172,1.176,4.702,4.207
379.0,,,4653989.643,-1.35,1.123,2.699,4.2,1.181,1.183,4.731,4.242
388.0,,,4761589.807,-1.35,1.134,2.699,4.199,1.16,1.161,4.661,4.132
397.0,,,4869016.776,-1.35,1.125,2.699,4.2,1.168,1.172,4.687,4.194
406.0,,,4976332.067,-1.35,1.125,2.699,4.199,1.165,1.16,4.675,4.134
415.0,,,5084230.462,-1.349,1.13,2.699,4.199,1.153,1.154,4.637,4.103
424.0,,,5180113.577,-1.35,1.135,2.699,4.199,1.159,1.166,4.651,4.176
433.0,,,5286834.527,-1.35,1.13,2.699,4.2,1.168,1.171,4.68,4.201
442.0,,,5393428.815,-1.35,1.125,2.699,4.2,1.163,1.162,4.658,4.157
451.0,,,5499786.088,-1.35,1.123,2.699,4.199,1.155,1.159,4.635,4.147
460.0,,,5606061.307,-1.35,1.118,2.699,4.2,1.165,1.17,4.668,4.202
469.0,,,5712358.511,-1.35,1.12,2.699,4.2,1.169,1.171,4.678,4.211
478.0,,,5815163.453,-1.35,0.675,2.699,4.199,0.962,0.966,3.817,3.415
487.0,,,5921580.462,-1.35,1.125,2.699,4.2,1.154,1.16,4.629,4.158
496.0,,,6027621.642,-1.35,1.121,2.699,4.2,1.152,1.154,4.62,4.135
505.0,,,6133381.035,-1.35,1.132,2.699,4.2,1.148,1.157,4.605,4.15
514.0,,,6235440.748,-1.35,1.119,2.699,4.2,1.158,1.161,4.638,4.171
523.0,,,6341143.034,-1.35,1.134,2.699,4.2,1.144,1.158,4.606,4.147
532.0,,,6443670.02,-1.35,1.129,2.699,4.2,1.148,1.149,4.603,4.115
541.0,,,6549056.331,-1.35,1.123,2.699,4.2,1.15,1.155,4.607,4.147
550.0,,,6654146.609,-1.35,1.12,2.699,4.2,1.138,1.132,4.562,4.041
559.0,,,6758918.192,-1.35,1.123,2.699,4.2,1.139,1.143,4.569,4.097
568.0,,,6863693.19,-1.35,1.129,2.699,4.2,1.143,1.145,4.58,4.111
577.0,,,6968878.362,-1.35,1.131,2.699,4.2,1.139,1.138,4.567,4.077
586.0,,,7073532.371,-1.35,1.139,2.699,4.199,1.112,1.113,4.471,3.957
595.0,,,7166030.927,-1.35,1.124,2.699,4.199,1.12,1.112,4.499,3.959
604.0,,,7269908.226,-1.35,1.14,2.699,4.199,1.104,1.106,4.443,3.934
613.0,,,7373823.643,-1.35,1.139,2.699,4.199,1.103,1.106,4.437,3.939
622.0,,,7473677.535,-1.35,1.136,2.699,4.199,1.103,1.105,4.437,3.934
631.0,,,7577437.307,-1.35,1.132,2.699,4.2,1.116,1.119,4.482,4.004
640.0,,,7681634.359,-1.35,1.13,2.699,4.199,1.111,1.11,4.47,3.952
649.0,,,7785903.057,-1.35,1.142,2.699,4.2,1.105,1.112,4.444,3.971
658.0,,,7889454.608,-1.35,1.148,2.699,4.2,1.107,1.109,4.451,3.96
667.0,,,7992707.627,-1.35,1.139,2.699,4.199,1.092,1.092,4.395,3.883
676.0,,,8095858.733,-1.35,1.134,2.699,4.2,1.098,1.102,4.415,3.935
685.0,,,8198825.654,-1.35,1.145,2.699,4.2,1.101,1.105,4.423,3.952
694.0,,,8302582.696,-1.35,1.135,2.699,4.199,1.091,1.088,4.391,3.864
703.0,,,8405336.721,-1.35,1.145,2.699,4.199,1.083,1.085,4.359,3.86
712.0,,,8503879.148,-1.35,1.138,2.699,4.199,1.078,1.079,4.341,3.836
721.0,,,8606253.745,-1.35,1.145,2.699,4.2,1.083,1.085,4.356,3.866
730.0,,,8704773.698,-1.35,1.136,2.699,4.2,1.094,1.096,4.394,3.919
739.0,,,8807408.639,-1.35,1.135,2.699,4.2,1.082,1.094,4.373,3.906
748.0,,,8906377.081,-1.35,1.139,2.699,4.2,1.097,1.091,4.41,3.896
757.0,,,9004830.242,-1.35,1.148,2.699,4.2,1.095,1.091,4.404,3.901
766.0,,,9094844.902,-1.35,1.133,2.699,4.199,1.061,1.064,4.27,3.795
775.0,,,9194929.196,-1.35,1.137,2.699,4.2,1.058,1.067,4.258,3.806
784.0,,,9295097.813,-1.35,1.142,2.699,4.2,1.058,1.061,4.261,3.784
793.0,,,9394977.958,-1.35,1.149,2.699,4.199,1.027,1.03,4.148,3.64
802.0,,,9495098.095,-1.35,1.143,2.699,4.2,1.047,1.049,4.219,3.73
811.0,,,9595111.174,-1.35,1.139,2.699,4.2,1.042,1.047,4.201,3.721
820.0,,,9696072.137,-1.35,1.147,2.699,4.2,1.052,1.056,4.238,3.761
829.0,,,9796433.665,-1.35,1.144,2.699,4.2,1.055,1.046,4.247,3.72
838.0,,,9896115.656,-1.35,1.152,2.699,4.199,1.034,1.033,4.17,3.665
847.0,,,9991219.94,-1.35,1.155,2.699,4.199,1.017,1.017,4.109,3.595
856.0,,,10090016.941,-1.35,1.15,2.699,4.199,1.013,1.015,4.093,3.59
865.0,,,10189485.846,-1.35,1.149,2.699,4.199,1.023,1.022,4.131,3.618
874.0,,,10288870.932,-1.349,1.159,2.699,4.199,1.011,1.013,4.086,3.575
883.0,,,10383503.634,-1.349,1.154,2.699,4.199,1.002,1.004,4.053,3.54
892.0,,,10481978.236,-1.349,1.152,2.699,4.199,0.996,0.997,4.028,3.512
901.0,,,10580452.233,-1.35,1.153,2.699,4.199,1.007,1.01,4.064,3.575
910.0,,,10674694.059,-1.349,1.154,2.699,4.199,0.995,0.996,4.024,3.512
919.0,,,10773522.077,-1.349,1.155,2.699,4.199,0.996,0.999,4.028,3.525
928.0,,,10871516.953,-1.35,1.15,2.699,4.199,0.986,0.987,3.988,3.476
937.0,,,10958798.295,-1.349,1.148,2.699,4.199,0.99,0.994,4.004,3.508
946.0,,,11057057.242,-1.349,1.154,2.699,4.199,0.988,0.99,3.996,3.489
955.0,,,11155154.486,-1.35,1.167,2.699,4.199,0.979,0.982,3.961,3.457
964.0,,,11248642.881,-1.349,1.153,2.699,4.199,0.974,0.978,3.944,3.442
973.0,,,11346224.226,-1.349,1.159,2.699,4.199,0.969,0.971,3.924,3.411
982.0,,,11444080.838,-1.349,1.157,2.699,4.199,0.939,0.974,3.83,3.44
991.0,,,11542105.274,-1.35,1.152,2.699,4.199,0.978,0.98,3.961,3.448
1000.0,,,11639957.25,-1.35,1.181,2.699,4.199,0.966,0.969,3.912,3.403
1009.0,,,11737534.435,-1.349,1.172,2.699,4.199,0.964,0.967,3.905,3.399
1018.0,,,11830466.432,-1.35,1.159,2.699,4.199,0.959,0.959,3.884,3.365
1027.0,,,11927367.55,-1.349,1.167,2.699,4.199,0.949,0.951,3.846,3.334
1036.0,,,12025051.808,-1.35,1.168,2.699,4.199,0.966,0.967,3.912,3.401
1045.0,,,12122183.246,-1.35,1.152,2.699,4.199,0.953,0.956,3.86,3.36
1054.0,,,12218556.265,-1.349,1.155,2.699,4.199,0.938,0.939,3.803,3.292
1063.0,,,12310081.773,-1.35,1.159,2.699,4.199,0.937,0.94,3.796,3.298
1072.0,,,12405633.295,-1.349,1.155,2.699,4.199,0.927,0.928,3.759,3.249
1081.0,,,12495964.387,-1.349,0.675,2.699,4.197,0.682,0.7,2.731,2.416
1090.0,,,12587875.204,-1.349,1.183,2.699,4.199,0.94,0.929,3.815,3.254
1099.0,,,12678364.172,-1.349,0.675,2.699,4.199,0.681,0.698,2.727,2.409
1108.0,,,12773509.464,-1.35,1.16,2.699,4.199,0.916,0.918,3.715,3.212
1117.0,,,12867583.951,-1.349,1.165,2.699,4.199,0.901,0.902,3.658,3.149
1126.0,,,12956665.349,-1.35,1.199,2.699,4.199,0.899,0.898,3.648,3.136
1135.0,,,13051096.471,-1.349,1.169,2.699,4.199,0.918,0.914,3.722,3.202
1144.0,,,13136463.375,-1.35,1.163,2.699,4.199,0.917,0.902,3.721,3.152
1153.0,,,13230268.384,-1.349,1.169,2.699,4.199,0.895,0.897,3.635,3.135
1162.0,,,13319206.457,-1.349,1.161,2.699,4.199,0.892,0.892,3.62,3.118
1171.0,,,13412006.276,-1.349,1.173,2.699,4.199,0.874,0.872,3.551,3.036
1180.0,,,13504061.397,-1.349,1.175,2.699,4.199,0.862,0.864,3.506,3.004
1189.0,,,13597504.403,-1.349,1.168,2.699,4.199,0.868,0.87,3.53,3.026
1198.0,,,13689965.793,-1.35,1.173,2.699,4.199,0.869,0.873,3.531,3.042
1207.0,,,13781887.406,-1.35,1.176,2.699,4.199,0.86,0.864,3.495,3.007
1216.0,,,13873274.504,-1.35,1.173,2.699,4.199,0.857,0.859,3.483,2.989
1225.0,,,13966180.938,-1.35,1.173,2.699,4.199,0.875,0.878,3.556,3.064
1234.0,,,14059951.455,-1.349,1.175,2.699,4.199,0.893,0.889,3.623,3.111
1243.0,,,14153022.424,-1.35,1.169,2.699,4.199,0.869,0.87,3.532,3.037
1252.0,,,14244876.062,-1.349,1.167,2.699,4.199,0.848,0.847,3.45,2.949
1261.0,,,14330939.273,-1.349,1.178,2.699,4.199,0.836,0.837,3.402,2.913
1270.0,,,14420632.725,-1.349,1.181,2.699,4.199,0.821,0.822,3.343,2.857
1279.0,,,14509888.52,-1.349,1.203,2.699,4.199,0.821,0.821,3.344,2.854
1281.0,,,14529711.747,-1.35,1.183,2.699,4.199,0.82,0.821,3.339,2.854