Folder: ML-project/Li-ion_Batteries

Note: README.md
# ML-project

Li-ion_Batteries/ — исходные .csv экспериментов
li-ion_batteries.csv — параметры батарей
li-ion_batteries_cycling_stats_aggregated.csv — агрегированные обработанные данные экспериментов
li-ion_batteries_cycling_stats+metadata_aggregated.csv — агрегированные обработанные данные экспериментов + метаданные о параметрах батарей

processing_many_csv.ipynb — агрегированние и обработка данных экспериментов
merge_csvs_notebook.ipynb — объединенеи метаданных и данных экспериментов
XGRegressor_sklearn.ipynb — обучение регрессора

File: CALCE_CX2-16_prism_LCO_25C_0-100_0.5-0.5C_a_cycle_data.csv
Cycle_Index,Start_Time,End_Time,Test_Time (s),Min_Current (A),Max_Current (A),Min_Voltage (V),Max_Voltage (V),Charge_Capacity (Ah),Discharge_Capacity (Ah),Charge_Energy (Wh),Discharge_Energy (Wh)
1.0,,,10907.674,-0.55,0.905,2.699,4.201,0.108,1.268,0.455,4.717
15.0,,,257839.005,-0.55,1.281,2.699,4.2,1.265,1.267,5.057,4.726
29.0,,,499063.597,-0.55,1.285,2.699,4.2,1.262,1.262,5.05,4.704
43.0,,,744392.672,-0.55,1.314,2.699,4.2,1.256,1.257,5.024,4.685
57.0,,,990028.175,-0.55,1.29,2.699,4.207,1.268,1.267,5.067,4.725
71.0,,,1230390.346,-0.55,1.304,2.699,4.202,1.261,1.259,5.038,4.698
85.0,,,1474617.823,-0.55,1.303,2.699,4.206,1.252,1.252,5.01,4.664
99.0,,,1705094.495,-0.55,1.336,2.699,4.203,1.249,1.247,4.999,4.642
113.0,,,1948262.513,-0.55,1.32,2.699,4.2,1.248,1.248,4.987,4.653
127.0,,,2191038.33,-0.55,1.286,2.699,4.2,1.24,1.24,4.963,4.617
141.0,,,2428717.216,-0.55,1.325,2.699,4.201,1.239,1.239,4.956,4.617
155.0,,,2653775.791,-0.55,1.323,2.699,4.202,1.241,1.239,4.966,4.614
169.0,,,2891129.759,-0.55,1.306,2.699,4.201,1.235,1.233,4.941,4.594
183.0,,,3127860.931,-0.55,0.675,2.699,4.198,1.025,1.03,4.06,3.796
197.0,,,3368598.575,-0.55,1.337,2.699,4.208,1.225,1.226,4.902,4.568
211.0,,,3611919.547,-0.55,1.32,2.699,4.2,1.228,1.228,4.921,4.561
225.0,,,3848453.48,-0.55,1.323,2.699,4.2,1.22,1.22,4.889,4.533
239.0,,,4088797.629,-0.55,1.287,2.699,4.2,1.217,1.217,4.873,4.525
253.0,,,4329036.597,-0.55,1.303,2.699,4.2,1.216,1.216,4.873,4.523
267.0,,,4568489.311,-0.55,1.299,2.699,4.2,1.214,1.213,4.859,4.516
281.0,,,4807102.715,-0.55,1.296,2.699,4.2,1.207,1.207,4.834,4.492
295.0,,,5040440.143,-0.55,0.675,2.699,4.199,0.996,1.002,3.949,3.685
309.0,,,5276718.625,-0.55,1.22,3.165,4.2,1.212,0.596,4.857,2.309
323.0,,,5507801.924,-0.55,1.219,2.699,4.2,1.203,1.203,4.824,4.468
337.0,,,5746436.077,-0.55,1.229,2.699,4.2,1.2,1.2,4.812,4.461
351.0,,,5984535.455,-0.55,1.23,2.699,4.2,1.199,1.2,4.805,4.462
365.0,,,6222880.429,-0.55,1.231,2.699,4.2,1.195,1.195,4.797,4.436
379.0,,,6460744.537,-0.55,1.256,2.699,4.2,1.189,1.19,4.773,4.419
393.0,,,6697847.649,-0.55,1.228,2.699,4.2,1.184,1.184,4.751,4.392
407.0,,,6934472.843,-0.55,1.219,2.699,4.2,1.182,1.181,4.745,4.384
421.0,,,7171509.477,-0.55,1.222,2.699,4.2,1.184,1.184,4.749,4.394
435.0,,,7381071.376,-0.55,1.242,2.699,4.2,1.182,1.177,4.744,4.368
449.0,,,7616883.57,-0.55,1.216,2.699,4.2,1.176,1.178,4.718,4.376
463.0,,,7852218.401,-0.55,1.231,2.699,4.2,1.172,1.173,4.704,4.353
477.0,,,8087151.99,-0.55,1.257,2.699,4.2,1.168,1.168,4.689,4.33
491.0,,,8311100.586,-0.55,1.236,2.699,4.2,1.183,1.188,4.743,4.42
505.0,,,8547194.333,-0.55,1.193,2.699,4.2,1.203,1.205,4.803,4.498
519.0,,,8757399.773,-0.55,1.203,2.699,4.2,1.189,1.194,4.762,4.449
533.0,,,8981274.902,0.0,1.199,3.162,4.2,1.186,0.0,4.746,0.0
547.0,,,9204029.696,-0.55,1.202,2.699,4.2,1.188,1.188,4.751,4.425
561.0,,,9439070.841,-0.55,1.188,2.699,4.2,1.196,1.197,4.777,4.466
575.0,,,9661557.367,-0.55,1.208,2.699,4.2,1.179,1.179,4.721,4.383
589.0,,,9895835.22,-0.55,1.199,2.699,4.2,1.182,1.178,4.724,4.381
603.0,,,10130299.446,-0.55,1.183,2.699,4.2,1.193,1.194,4.765,4.459
617.0,,,10364016.268,-0.55,1.2,2.699,4.2,1.169,1.169,4.682,4.344
631.0,,,10590981.377,-0.55,1.204,2.699,4.2,1.188,1.184,4.754,4.403
645.0,,,10808879.504,-0.55,1.199,2.699,4.2,1.176,1.179,4.707,4.385
659.0,,,11042064.999,-0.55,1.184,2.699,4.2,1.181,1.182,4.719,4.407
673.0,,,11275677.647,-0.55,1.176,2.699,4.2,1.178,1.174,4.708,4.369
687.0,,,11509269.202,-0.55,1.193,2.699,4.2,1.181,1.179,4.722,4.389
701.0,,,11743318.074,-0.55,1.173,2.699,4.199,1.19,1.192,4.749,4.45
715.0,,,11971210.529,-0.55,1.195,2.699,4.2,1.159,1.159,4.643,4.308
729.0,,,12203036.63,-0.55,1.177,2.699,4.199,1.175,1.178,4.695,4.392
743.0,,,12437003.767,-0.55,1.196,2.699,4.2,1.169,1.167,4.678,4.336
757.0,,,12659413.876,-0.55,1.193,2.699,4.2,1.149,1.15,4.605,4.272
771.0,,,12890080.673,-0.55,1.166,2.699,4.199,1.17,1.171,4.677,4.364
785.0,,,13120681.808,-0.55,1.186,2.699,4.2,1.14,1.139,4.568,4.226
799.0,,,13350808.532,-0.55,1.188,2.699,4.2,1.164,1.164,4.658,4.329
813.0,,,13573173.011,-0.55,1.205,2.699,4.2,1.139,1.135,4.568,4.207
827.0,,,13801062.636,-0.55,1.203,2.699,4.2,1.123,1.122,4.51,4.158
841.0,,,14028702.152,-0.55,1.201,2.699,4.2,1.141,1.143,4.57,4.25
855.0,,,14241950.879,-0.55,1.188,2.699,4.2,1.127,1.131,4.519,4.196
869.0,,,14468670.904,-0.55,1.184,2.699,4.2,1.13,1.135,4.529,4.216
883.0,,,14696985.339,-0.55,1.195,2.699,4.2,1.123,1.122,4.501,4.159
897.0,,,14922953.007,-0.55,1.2,2.699,4.2,1.114,1.111,4.468,4.119
911.0,,,15149872.069,-0.55,1.181,2.699,4.199,1.133,1.134,4.537,4.214
925.0,,,15365979.72,-0.55,1.197,2.699,4.2,1.102,1.106,4.426,4.101
939.0,,,15590600.978,-0.55,1.186,2.699,4.2,1.122,1.123,4.495,4.172
953.0,,,15816683.968,-0.55,1.18,2.699,4.199,1.118,1.121,4.48,4.165
967.0,,,16116594.73,-0.55,1.215,2.699,4.2,1.091,1.097,4.381,4.06
981.0,,,16341388.355,-0.55,1.205,2.699,4.2,1.096,1.107,4.402,4.1
995.0,,,16563669.658,-0.55,1.194,2.699,4.2,1.102,1.104,4.42,4.091
1009.0,,,16787069.58,-0.55,1.209,2.699,4.2,1.072,1.071,4.314,3.955
1023.0,,,17006665.567,-0.55,1.204,2.699,4.2,1.067,1.067,4.295,3.939
1037.0,,,17224073.91,-0.55,1.207,2.699,4.2,1.065,1.067,4.285,3.939
1051.0,,,17442864.938,-0.55,1.218,2.699,4.2,1.054,1.054,4.244,3.885
1065.0,,,17659922.394,-0.55,1.217,2.699,4.2,1.041,1.041,4.197,3.832
1079.0,,,17858668.65,-0.55,1.256,2.699,4.2,1.04,1.036,4.187,3.818
1093.0,,,18074772.726,-0.55,1.234,2.699,4.2,1.047,1.047,4.21,3.862
1107.0,,,18291872.592,-0.55,1.265,2.699,4.2,1.035,1.032,4.166,3.8
1121.0,,,18502698.18,-0.55,1.246,2.699,4.2,1.034,1.032,4.163,3.803
1135.0,,,18684544.501,-0.674,0.675,2.699,4.199,0.782,0.795,3.117,2.87
1149.0,,,18876800.619,-0.674,1.247,2.699,4.2,0.988,0.988,3.987,3.606
1163.0,,,19068608.791,-0.675,1.259,2.699,4.2,0.979,0.981,3.953,3.575
1177.0,,,19931313.214,-0.675,1.246,2.699,4.2,1.005,1.008,4.047,3.682
1191.0,,,20119073.979,-0.674,1.263,2.699,4.2,0.994,0.991,4.006,3.62
1205.0,,,20310965.497,-0.674,1.244,2.699,4.2,0.984,0.984,3.966,3.593
1219.0,,,20504049.871,-0.675,1.274,2.699,4.2,0.982,0.981,3.96,3.578
1233.0,,,20698194.398,-0.675,1.245,2.699,4.2,0.984,0.984,3.97,3.585
1247.0,,,20892087.869,-0.674,1.253,2.699,4.2,0.982,0.977,3.958,3.556
1261.0,,,21084859.65,-0.675,1.254,2.699,4.2,0.964,0.965,3.895,3.51
1275.0,,,21278223.495,-0.675,1.232,2.699,4.2,1.036,1.016,4.159,3.705
1289.0,,,21463493.14,-0.674,0.876,2.699,4.2,0.097,1.028,0.409,3.727
1303.0,,,21659026.572,-0.674,1.25,2.699,4.2,0.982,0.985,3.96,3.58
1317.0,,,21856721.751,-0.675,1.253,2.699,4.2,1.012,1.015,4.073,3.701
1331.0,,,22054962.891,-0.674,1.242,2.699,4.2,0.97,0.97,3.913,3.524
1345.0,,,22246767.529,-0.675,1.262,2.699,4.2,0.972,0.975,3.924,3.544
1359.0,,,22447574.402,-0.675,1.241,2.699,4.2,1.022,1.025,4.111,3.737
1373.0,,,22645045.058,-0.674,1.243,2.699,4.2,0.997,0.979,4.017,3.561
1387.0,,,22839923.417,-0.675,1.273,2.699,4.2,0.957,0.96,3.863,3.486
1401.0,,,23037510.204,-0.674,1.26,2.699,4.2,0.965,0.965,3.895,3.5
1415.0,,,23215212.661,-0.674,1.25,2.699,4.2,0.956,0.952,3.86,3.45
1429.0,,,23411067.774,-0.675,1.26,2.699,4.2,0.982,0.988,3.961,3.59
1443.0,,,23609514.326,-0.675,1.25,2.699,4.2,0.999,0.997,4.024,3.625
1457.0,,,23808536.273,-0.674,1.247,2.699,4.2,0.967,0.967,3.901,3.505
1471.0,,,24009370.235,-0.674,1.248,2.699,4.2,0.972,0.969,3.922,3.512
1485.0,,,24206812.951,-0.674,1.251,2.699,4.2,0.97,0.978,3.916,3.547
1499.0,,,24405723.011,-0.674,1.24,2.699,4.2,0.987,0.971,3.975,3.517
1513.0,,,24601596.768,-0.675,1.276,2.699,4.2,0.963,0.958,3.885,3.464
1527.0,,,24801359.988,-0.675,1.248,2.699,4.2,0.955,0.956,3.857,3.454
1541.0,,,25010119.733,-0.675,1.231,2.699,4.199,1.037,1.016,4.164,3.685
1555.0,,,25213193.593,-0.675,1.257,2.699,4.2,0.959,0.955,3.872,3.452
1569.0,,,25420392.326,-0.675,1.242,2.699,4.199,1.025,1.023,4.124,3.715
1583.0,,,25622473.051,-0.675,1.253,2.699,4.2,0.931,0.942,3.768,3.397
1597.0,,,25815357.803,-0.674,1.264,2.699,4.2,0.965,0.97,3.897,3.507
1611.0,,,26006163.474,-0.675,0.674,2.699,4.197,0.744,0.761,2.956,2.736
1625.0,,,26197233.305,-0.675,0.675,2.699,4.195,0.705,0.717,2.807,2.568
1639.0,,,26406608.074,-0.675,1.238,2.699,4.199,1.028,1.031,4.138,3.739
1653.0,,,26612063.982,-0.674,1.263,2.699,4.2,0.976,0.982,3.941,3.547
1667.0,,,26805601.421,-0.674,0.985,2.699,4.2,0.129,0.994,0.544,3.565
1681.0,,,27008856.244,-0.675,1.255,2.699,4.2,0.957,0.976,3.87,3.52
1695.0,,,27210999.692,-0.675,1.243,2.699,4.199,1.021,1.022,4.113,3.7
1709.0,,,27418518.241,-0.675,1.264,2.699,4.2,0.931,0.93,3.768,3.339
1723.0,,,27621132.876,-0.674,1.262,2.699,4.2,0.912,0.912,3.696,3.271
1737.0,,,27830365.026,-0.675,1.251,2.699,4.199,1.01,1.009,4.073,3.648
1751.0,,,28028871.002,-0.674,1.258,2.699,4.2,0.952,0.93,3.845,3.337
1765.0,,,28224326.35,-0.674,1.256,2.699,4.2,0.906,0.904,3.672,3.239
1779.0,,,28427543.573,-0.675,1.271,2.699,4.2,0.891,0.886,3.61,3.171
1793.0,,,28630052.529,-0.675,1.289,2.699,4.2,0.941,0.949,3.807,3.41
1807.0,,,28820973.22,-0.675,1.289,2.699,4.2,0.958,0.936,3.87,3.353
1821.0,,,29014651.803,-0.675,1.254,2.699,4.2,0.942,0.931,3.816,3.344
1835.0,,,29224022.622,-0.675,1.266,2.699,4.2,0.898,0.893,3.642,3.192
1849.0,,,29415364.529,-0.675,1.226,2.699,4.2,0.872,0.857,3.54,3.063
1863.0,,,29610343.058,-0.675,1.296,2.699,4.2,0.889,0.905,3.608,3.238
1877.0,,,29804608.51,-0.675,1.262,2.699,4.2,0.894,0.866,3.618,3.09
1891.0,,,29996546.241,-0.674,1.268,2.699,4.2,0.84,0.837,3.413,2.985
1905.0,,,30186450.17,-0.674,1.259,2.699,4.199,0.954,0.955,3.859,3.429
1919.0,,,30380611.973,-0.675,1.283,2.699,4.2,0.905,0.899,3.672,3.216
1933.0,,,30576318.163,-0.675,1.287,2.699,4.199,0.949,0.952,3.84,3.411
1947.0,,,30765218.866,-0.675,0.674,2.699,4.198,0.574,0.583,2.294,2.073
1961.0,,,30962077.427,-0.675,1.278,2.699,4.2,0.838,0.833,3.405,2.965
1975.0,,,31158396.698,-0.675,1.266,2.699,4.2,0.869,0.875,3.529,3.119
1989.0,,,31347174.375,-0.675,1.232,2.699,4.2,0.853,0.822,3.457,2.924
2003.0,,,31545127.565,-0.675,1.263,2.699,4.199,0.905,0.915,3.672,3.266
2016.0,,,31727609.18,-0.675,1.31,2.699,4.2,0.829,0.828,3.374,2.941

File: CALCE_CX2-25_prism_LCO_25C_0-100_0.5-0.5C_b_cycle_data.csv
Cycle_Index,Start_Time,End_Time,Test_Time (s),Min_Current (A),Max_Current (A),Min_Voltage (V),Max_Voltage (V),Charge_Capacity (Ah),Discharge_Capacity (Ah),Charge_Energy (Wh),Discharge_Energy (Wh)
1.0,,,17206.108,-0.675,1.19,2.699,4.2,1.367,1.363,5.49,5.039
14.0,,,237887.832,-0.674,1.178,2.699,4.2,1.346,1.343,5.379,4.978
27.0,,,455717.25,-0.675,1.157,2.699,4.2,1.343,1.343,5.351,5.0
40.0,,,664203.537,-0.674,1.171,2.699,4.2,1.326,1.325,5.299,4.915
53.0,,,879714.735,-0.675,1.153,2.699,4.199,1.325,1.324,5.287,4.92
66.0,,,1097307.387,-0.675,1.177,2.699,4.2,1.318,1.318,5.277,4.879
79.0,,,1308471.705,-0.674,1.164,2.699,4.199,1.311,1.308,5.248,4.845
92.0,,,1490734.128,0.0,0.675,3.104,4.132,0.976,0.0,3.847,0.0
105.0,,,1694356.212,-0.674,1.153,2.699,4.2,1.295,1.298,5.186,4.816
118.0,,,1906512.184,-0.674,1.144,2.699,4.2,1.3,1.302,5.19,4.842
131.0,,,2113933.24,-0.674,1.156,2.699,4.2,1.288,1.286,5.155,4.764
144.0,,,2316842.805,-0.675,1.151,2.699,4.199,1.313,1.31,5.24,4.873
157.0,,,2520196.282,-0.674,1.144,2.699,4.2,1.3,1.298,5.182,4.834
170.0,,,2726423.249,-0.675,1.159,2.699,4.2,1.28,1.279,5.122,4.741
183.0,,,2925050.238,-0.674,1.159,2.699,4.2,0.981,1.269,3.991,4.695
196.0,,,3134270.279,-0.674,1.146,2.699,4.2,1.278,1.277,5.102,4.747
209.0,,,3343059.8,-0.674,1.155,2.699,4.199,1.255,1.255,5.032,4.645
222.0,,,3550999.798,-0.674,1.151,2.699,4.2,1.249,1.256,5.006,4.658
235.0,,,3758748.348,-0.674,1.159,2.699,4.2,1.269,1.271,5.082,4.715
248.0,,,3962493.509,-0.674,1.166,2.699,4.2,1.248,1.246,5.006,4.607
261.0,,,4169383.529,-0.675,1.147,2.699,4.2,1.251,1.251,5.006,4.642
274.0,,,4370608.95,-0.675,1.15,2.699,4.2,1.245,1.245,4.986,4.621
287.0,,,4572748.542,-0.674,0.675,2.699,4.199,1.019,1.022,4.049,3.729
300.0,,,4763859.775,-0.675,1.153,2.699,4.2,1.244,1.244,4.987,4.611
313.0,,,4965124.952,-0.675,1.153,2.699,4.199,1.238,1.237,4.959,4.585
326.0,,,5169637.72,-0.675,1.14,2.699,4.2,1.243,1.246,4.966,4.632
339.0,,,5373595.115,-0.675,1.154,2.699,4.2,1.233,1.234,4.936,4.58
352.0,,,5577315.29,-0.675,1.159,2.699,4.2,1.23,1.234,4.925,4.586
365.0,,,5776387.427,-0.675,1.137,2.699,4.2,1.236,1.238,4.937,4.604
378.0,,,5979153.417,-0.675,1.141,2.699,4.2,1.226,1.228,4.908,4.559
391.0,,,6181652.681,-0.674,1.162,2.699,4.2,1.216,1.221,4.874,4.533
404.0,,,6385966.797,-0.675,1.152,2.699,4.2,1.235,1.236,4.944,4.588
417.0,,,6568606.176,-0.675,1.152,2.699,4.2,1.217,1.218,4.879,4.516
430.0,,,6770256.02,-0.675,1.156,2.699,4.2,1.205,1.206,4.831,4.466
443.0,,,6971300.252,-0.675,1.142,2.699,4.2,1.214,1.214,4.86,4.509
456.0,,,7171900.431,-0.675,1.161,2.699,4.2,1.202,1.206,4.818,4.476
469.0,,,7373130.195,-0.675,1.159,2.699,4.2,1.198,1.197,4.806,4.434
482.0,,,7568973.108,-0.674,1.148,2.699,4.2,1.207,1.207,4.831,4.482
495.0,,,7768571.681,-0.675,1.162,2.699,4.2,1.193,1.191,4.784,4.414
508.0,,,7968145.587,-0.675,1.145,2.699,4.2,1.181,1.217,4.758,4.513
521.0,,,8169782.881,-0.675,1.156,2.699,4.2,1.208,1.212,4.838,4.504
534.0,,,8360837.177,-0.674,1.151,2.699,4.2,1.193,1.194,4.783,4.427
547.0,,,8559723.367,-0.675,1.178,2.699,4.2,1.167,1.165,4.698,4.296
560.0,,,8758016.414,-0.675,1.166,2.699,4.2,1.179,1.177,4.73,4.359
573.0,,,8951429.113,-0.674,1.166,2.699,4.2,1.181,1.175,4.738,4.354
586.0,,,9150071.728,-0.675,1.173,2.699,4.2,1.167,1.164,4.692,4.299
599.0,,,9347560.743,-0.675,1.161,2.699,4.2,1.159,1.156,4.662,4.267
612.0,,,9544326.372,-0.674,1.158,2.699,4.2,1.153,1.152,4.639,4.25
625.0,,,9736226.848,-0.675,1.158,2.699,4.2,1.132,1.163,4.582,4.291
638.0,,,9934369.12,-0.674,1.166,2.699,4.2,1.155,1.153,4.647,4.253
651.0,,,10127500.833,-0.675,1.166,2.699,4.2,1.143,1.139,4.601,4.196
664.0,,,10312997.395,-0.674,0.675,2.699,4.198,0.896,0.903,3.572,3.275
677.0,,,10507860.34,-0.675,1.187,2.699,4.2,1.123,1.122,4.532,4.124
690.0,,,10701795.269,-0.675,1.169,2.699,4.2,1.12,1.119,4.517,4.117
703.0,,,10887282.015,-0.675,1.183,2.699,4.199,1.128,1.122,4.55,4.126
716.0,,,11076585.957,-0.675,1.168,2.699,4.2,1.121,1.118,4.52,4.114
729.0,,,11269812.337,-0.675,1.201,2.699,4.2,1.114,1.113,4.497,4.095
742.0,,,11462380.447,-0.674,1.165,2.699,4.2,1.116,1.113,4.496,4.097
755.0,,,11656865.809,-0.674,1.185,2.699,4.2,1.112,1.111,4.487,4.086
768.0,,,11843687.741,-0.674,1.207,2.699,4.199,1.106,1.104,4.465,4.058
781.0,,,12035674.823,-0.674,1.182,2.699,4.2,1.104,1.101,4.453,4.048
794.0,,,12226891.987,-0.674,1.179,2.699,4.2,1.095,1.09,4.421,3.999
807.0,,,12417407.252,-0.675,1.175,2.699,4.199,1.086,1.086,4.386,3.986
820.0,,,12599010.427,-0.675,1.182,2.699,4.2,1.098,1.095,4.435,4.022
833.0,,,12789801.428,-0.675,1.192,2.699,4.2,1.088,1.088,4.39,3.995
846.0,,,12974395.848,-0.675,0.675,2.699,4.198,0.839,0.848,3.352,3.07
859.0,,,13163684.636,-0.675,1.213,2.699,4.2,1.072,1.068,4.335,3.914
872.0,,,13354937.735,-0.674,1.174,2.699,4.2,1.093,1.09,4.41,4.006
885.0,,,13545171.392,-0.674,1.189,2.699,4.2,1.081,1.077,4.366,3.952
898.0,,,13729420.119,-0.675,1.184,2.699,4.2,1.072,1.072,4.333,3.933
911.0,,,13917959.173,-0.675,1.18,2.699,4.2,1.07,1.069,4.323,3.923
924.0,,,14108762.926,-0.675,1.176,2.699,4.2,1.083,1.083,4.369,3.98
937.0,,,14297858.234,-0.675,1.183,2.699,4.2,1.07,1.069,4.319,3.922
950.0,,,14486226.103,-0.675,1.171,2.699,4.2,1.068,1.066,4.312,3.911
963.0,,,14674313.341,-0.675,1.181,2.699,4.199,1.048,1.072,4.254,3.931
976.0,,,14856745.432,-0.675,1.179,2.699,4.2,1.069,1.068,4.315,3.922
989.0,,,15039363.063,-0.675,1.173,2.699,4.199,1.059,1.059,4.275,3.885
1002.0,,,15226209.532,-0.675,1.178,2.699,4.199,1.054,1.051,4.257,3.853
1015.0,,,15412375.985,-0.675,1.196,2.699,4.199,1.045,1.045,4.221,3.829
1028.0,,,15599597.675,-0.675,1.182,2.699,4.199,1.043,1.04,4.217,3.805
1041.0,,,15785171.813,-0.675,1.182,2.699,4.2,1.032,1.032,4.175,3.775
1054.0,,,15964822.22,-0.675,1.183,2.699,4.2,1.027,1.026,4.155,3.749
1067.0,,,16148926.494,-0.675,1.205,2.699,4.2,1.023,1.02,4.137,3.725
1080.0,,,16329351.925,-0.675,1.175,2.699,4.2,1.027,1.029,4.154,3.76
1093.0,,,16484017.809,-0.675,1.182,2.699,4.2,1.037,1.022,4.191,3.74
1106.0,,,16667714.258,-0.675,1.194,2.699,4.2,1.013,1.014,4.098,3.706
1119.0,,,16850942.346,-0.675,1.182,2.699,4.199,1.009,1.007,4.082,3.675
1132.0,,,17033377.035,-0.675,1.193,2.699,4.199,1.0,0.998,4.048,3.639
1145.0,,,17216719.32,-0.675,1.184,2.699,4.199,1.013,1.01,4.098,3.684
1158.0,,,17394136.317,-0.675,0.675,2.699,4.198,0.755,0.766,3.015,2.759
1171.0,,,17576462.977,-0.675,1.192,2.699,4.2,0.988,0.987,4.001,3.596
1184.0,,,17757233.964,-0.675,1.22,2.699,4.2,0.983,0.983,3.98,3.58
1197.0,,,17939675.19,-0.675,1.186,2.699,4.2,1.012,1.004,4.088,3.667
1210.0,,,18123906.363,-0.675,1.179,2.699,4.2,1.04,1.04,4.191,3.817
1223.0,,,18294376.614,-0.675,1.165,2.699,4.2,1.035,1.029,4.172,3.773
1236.0,,,18464610.847,-0.675,1.159,2.699,4.2,1.036,1.04,4.175,3.815
1249.0,,,18644053.961,-0.675,1.188,2.699,4.2,1.0,1.0,4.04,3.654
1262.0,,,18815160.874,-0.675,0.675,2.699,4.198,0.749,0.762,2.992,2.746
1275.0,,,18996797.257,-0.675,1.167,2.699,4.2,1.009,1.011,4.074,3.703
1288.0,,,19171377.558,-0.675,1.082,2.699,4.2,0.276,1.0,1.157,3.65
1301.0,,,19352429.777,-0.675,1.177,2.699,4.2,0.982,0.983,3.97,3.589
1314.0,,,19532559.249,-0.675,1.189,2.699,4.2,0.981,0.974,3.968,3.551
1327.0,,,19714279.298,-0.675,1.171,2.699,4.2,1.006,1.006,4.058,3.688
1340.0,,,19895521.73,-0.675,1.192,2.699,4.2,0.992,0.988,4.009,3.617
1353.0,,,20070731.878,-0.674,1.184,3.223,4.2,0.98,0.061,3.964,0.248
1366.0,,,20243243.924,-0.675,1.182,2.699,4.2,0.973,0.971,3.933,3.546
1379.0,,,20420662.369,-0.675,1.188,2.699,4.2,0.955,0.954,3.868,3.479
1392.0,,,20594060.194,-0.675,1.19,2.699,4.2,0.986,0.986,3.983,3.608
1405.0,,,20772969.766,-0.674,1.183,2.699,4.2,0.983,0.972,3.976,3.545
1418.0,,,20946698.474,-0.674,1.194,2.699,4.2,0.961,0.954,3.89,3.476
1431.0,,,21121057.433,-0.675,1.194,2.699,4.2,0.99,0.991,3.994,3.625
1444.0,,,21293407.404,-0.675,1.197,2.699,4.2,0.944,0.94,3.826,3.421
1457.0,,,21465352.681,-0.675,0.675,2.699,4.196,0.728,0.746,2.904,2.692
1470.0,,,21639732.46,-0.675,1.159,2.699,4.199,0.655,0.948,2.696,3.464
1483.0,,,21815901.225,-0.675,1.183,2.699,4.2,0.937,0.939,3.797,3.42
1496.0,,,21991241.969,-0.675,1.179,2.699,4.199,0.947,0.949,3.835,3.46
1509.0,,,22168016.286,-0.675,1.19,2.699,4.199,0.924,0.921,3.749,3.341
1522.0,,,22342728.899,-0.675,1.223,2.699,4.2,0.909,0.896,3.693,3.248
1535.0,,,22501737.591,-0.675,1.185,2.699,4.2,0.912,0.899,3.7,3.258
1548.0,,,22673154.8,-0.675,1.202,2.699,4.199,0.903,0.907,3.667,3.291
1561.0,,,22846793.727,-0.675,1.198,2.699,4.2,0.913,0.893,3.7,3.235
1574.0,,,23016177.331,-0.675,1.195,2.699,4.199,0.883,0.871,3.585,3.15
1587.0,,,23185268.524,-0.675,1.212,2.699,4.199,0.836,0.831,3.413,2.987
1600.0,,,23353645.069,-0.675,1.222,2.699,4.2,0.886,0.888,3.599,3.22
1613.0,,,23520539.313,-0.675,1.216,2.699,4.2,0.838,0.838,3.418,3.022
1626.0,,,23668563.605,-0.675,1.219,2.699,4.199,0.858,0.861,3.492,3.116
1639.0,,,23827911.93,-0.675,0.675,2.699,4.196,0.604,0.628,2.42,2.244
1652.0,,,23994625.021,-0.675,1.22,2.699,4.2,0.826,0.84,3.372,3.032
1665.0,,,24150351.745,-0.674,1.235,2.699,4.2,0.801,0.796,3.272,2.86
1678.0,,,24309525.899,-0.675,1.221,2.699,4.2,0.762,0.751,3.12,2.682
1691.0,,,24462778.403,-0.674,1.235,2.699,4.2,0.76,0.767,3.109,2.749
1704.0,,,24614676.087,-0.675,1.216,2.699,4.2,0.798,0.799,3.254,2.877
1717.0,,,24766152.016,-0.675,1.222,2.699,4.199,0.716,0.693,2.935,2.466
1730.0,,,24910545.739,-0.675,1.217,2.699,4.2,0.676,0.673,2.777,2.39
1743.0,,,25040039.828,-0.674,0.675,2.699,4.198,0.366,0.397,1.485,1.384
1756.0,,,25179026.544,-0.674,1.197,2.699,4.2,0.631,0.627,2.599,2.216
1769.0,,,25309115.209,-0.675,0.675,2.699,4.195,0.323,0.357,1.31,1.237
1782.0,,,25437348.042,-0.675,1.262,2.699,4.2,0.561,0.561,2.318,1.971
1795.0,,,25563482.579,-0.675,1.215,2.699,4.2,0.577,0.569,2.378,2.004
1808.0,,,25691358.429,-0.675,1.209,2.699,4.2,0.573,0.572,2.367,2.016
1815.0,,,25760314.152,-0.675,1.213,2.699,4.2,0.559,0.555,2.308,1.95