Folder: ML-project/Li-ion_Batteries (part 10)

File: UL-PUR_R15-NA10_18650_NCA_23C_2.5-96.5_0.5-0.5C_j_cycle_data.csv
Cycle_Index,Test_Time (s),Min_Current (A),Max_Current (A),Min_Voltage (V),Max_Voltage (V),Charge_Capacity (Ah),Discharge_Capacity (Ah),Charge_Energy (Wh),Discharge_Energy (Wh)
1.0,12928.337,-1.599,1.6,2.9,4.0,1.315,2.618,5.16,9.137
5.0,75790.755,-1.599,1.6,2.9,4.0,2.588,2.592,9.792,9.058
9.0,137915.201,-1.6,1.6,2.9,4.0,2.571,2.579,9.729,9.011
13.0,199724.475,-1.599,1.6,2.9,4.0,2.563,2.56,9.701,8.941
17.0,261347.589,-1.6,1.6,2.9,4.0,2.547,2.544,9.642,8.885
21.0,322767.057,-1.599,1.6,2.9,4.0,2.552,2.55,9.655,8.91
25.0,384012.147,-1.599,1.6,2.9,4.0,2.541,2.547,9.618,8.897
29.0,439790.471,-1.599,1.6,2.9,4.0,2.072,2.061,7.734,7.077
33.0,500979.437,-1.599,1.6,2.9,4.0,2.543,2.542,9.624,8.879
37.0,561992.994,-1.6,1.6,2.9,4.0,2.547,2.539,9.635,8.872
41.0,623080.045,-1.599,1.6,2.9,4.0,2.537,2.534,9.601,8.851
45.0,684007.503,-1.608,1.6,2.897,4.0,2.532,2.525,9.582,8.821
49.0,744884.583,-1.599,1.6,2.9,4.0,2.521,2.523,9.544,8.809
53.0,805698.003,-1.599,1.6,2.9,4.0,2.516,2.523,9.531,8.811
57.0,866648.913,-1.599,1.6,2.9,4.0,2.523,2.511,9.553,8.765
61.0,927417.706,-1.599,1.6,2.9,4.0,2.513,2.511,9.516,8.765
65.0,988164.713,-1.599,1.6,2.9,4.0,2.513,2.516,9.517,8.782
69.0,1048841.213,-1.6,1.6,2.9,4.0,2.504,2.504,9.486,8.738
73.0,1109542.818,-1.599,1.6,2.9,4.0,2.504,2.507,9.487,8.749
77.0,1170209.81,-1.599,1.6,2.9,4.0,2.496,2.494,9.459,8.7
81.0,1230837.626,-1.599,1.6,2.9,4.0,2.491,2.49,9.444,8.688
85.0,1285888.961,-1.599,1.6,2.9,4.0,2.002,2.007,7.484,6.876
89.0,1346579.156,-1.6,1.6,2.9,4.0,2.488,2.489,9.431,8.68
93.0,1401622.613,-1.599,1.6,2.9,4.0,2.478,2.472,9.399,8.622
97.0,1462087.202,-1.599,1.6,2.9,4.0,2.48,2.471,9.404,8.616
101.0,1517012.155,-1.599,1.6,2.9,4.0,2.474,2.474,9.385,8.628
105.0,1571838.782,-1.599,1.6,2.9,4.0,1.965,1.973,7.355,6.755
109.0,1632402.429,-1.599,1.6,2.9,4.0,2.477,2.473,9.393,8.624
113.0,1692913.14,-1.599,1.6,2.9,4.0,2.478,2.476,9.396,8.633
117.0,1753400.192,-1.599,1.6,2.9,4.0,2.454,2.457,9.317,8.562
121.0,1813924.834,-1.6,1.6,2.9,4.0,2.475,2.455,9.389,8.559
125.0,1874379.267,-1.599,1.6,2.9,4.0,2.454,2.459,9.317,8.571
129.0,1929207.846,-1.599,1.6,2.9,4.0,2.464,2.451,9.35,8.541
133.0,1989671.866,-1.599,1.6,2.9,4.0,2.466,2.452,9.356,8.544
137.0,2050007.575,-1.599,1.6,2.9,4.0,2.444,2.452,9.28,8.541
141.0,2110424.702,-1.599,1.6,2.9,4.0,2.455,2.458,9.318,8.566
145.0,2170744.1,-1.599,1.6,2.9,4.076,2.445,2.446,9.284,8.522
149.0,2231093.648,-1.599,1.6,2.9,4.0,2.474,2.454,9.378,8.554
153.0,2291441.104,-1.6,1.6,2.9,4.0,2.457,2.47,9.323,8.607
157.0,2351633.549,-1.599,1.6,2.9,4.0,2.453,2.443,9.308,8.508
161.0,2411935.544,-1.6,1.6,2.9,4.0,2.464,2.47,9.345,8.61
165.0,2472308.022,-1.6,1.6,2.9,4.0,2.466,2.479,9.353,8.641
169.0,2526808.19,-1.599,1.6,2.9,4.0,1.946,1.942,7.282,6.64
173.0,2587100.254,-1.6,1.6,2.9,4.0,2.502,2.452,9.47,8.552
177.0,2647346.463,-1.6,1.6,2.9,4.0,2.437,2.442,9.25,8.502
181.0,2707538.395,-1.599,1.6,2.9,4.0,2.425,2.427,9.216,8.451
185.0,2767785.872,-1.599,1.6,2.9,4.0,2.431,2.417,9.236,8.412
189.0,2828038.871,-1.599,1.6,2.9,4.0,2.422,2.423,9.207,8.437
193.0,2882451.894,-1.599,1.6,2.9,4.0,2.418,2.415,9.195,8.402
197.0,2942672.017,-1.599,1.6,2.9,4.034,2.418,2.41,9.193,8.385
201.0,3002900.474,-1.599,1.6,2.9,4.0,2.409,2.411,9.162,8.387
205.0,3057085.488,-1.599,1.6,2.9,4.0,1.871,1.879,7.017,6.412
209.0,3117474.869,-1.599,1.6,2.9,4.0,2.412,2.43,9.174,8.457
213.0,3171988.91,-1.6,1.6,2.9,4.0,2.431,2.451,9.234,8.535
217.0,3232303.258,-1.6,1.6,2.9,4.0,2.436,2.427,9.252,8.445
221.0,3292577.25,-1.599,1.6,2.9,4.0,2.406,2.39,9.154,8.312
225.0,3352794.137,-1.599,1.6,2.9,4.0,2.4,2.4,9.129,8.348
229.0,3413008.17,-1.599,1.6,2.9,4.0,2.388,2.392,9.091,8.319
233.0,3473174.766,-1.599,1.6,2.9,4.0,2.388,2.384,9.091,8.288
237.0,3533372.382,-1.599,1.6,2.9,4.0,2.401,2.384,9.134,8.293
241.0,3593600.363,-1.599,1.6,2.9,4.0,2.403,2.406,9.139,8.366
245.0,3653817.754,-1.599,1.6,2.9,4.0,2.388,2.387,9.091,8.297
249.0,3713960.373,-1.599,1.6,2.9,4.0,2.392,2.396,9.106,8.335
253.0,3774195.731,-1.599,1.6,2.9,4.0,2.389,2.394,9.094,8.323
257.0,3834301.4,-1.599,1.6,2.9,4.0,2.376,2.385,9.052,8.29
261.0,3894490.296,-1.599,1.6,2.9,4.0,2.39,2.386,9.094,8.292
265.0,3954711.334,-1.599,1.6,2.9,4.0,2.399,2.396,9.127,8.331
269.0,4014774.317,-1.599,1.6,2.9,4.0,2.378,2.385,9.058,8.289
273.0,4073548.604,-1.599,1.601,2.9,4.0,2.368,2.367,9.021,8.224
277.0,4133546.99,-1.599,1.6,2.9,4.0,2.37,2.376,9.031,8.259
281.0,4193659.657,-1.599,1.6,2.9,4.0,2.38,2.39,9.064,8.308
285.0,4253781.386,-1.599,1.6,2.9,4.0,2.384,2.381,9.076,8.275
289.0,4313904.672,-1.599,1.6,2.9,4.0,2.358,2.37,8.988,8.23
293.0,4373948.961,-1.599,1.6,2.9,4.0,2.374,2.368,9.043,8.228
297.0,4434156.624,-1.599,1.6,2.9,4.0,2.373,2.372,9.033,8.238
301.0,4494234.053,-1.599,1.6,2.9,4.0,2.36,2.365,8.997,8.215
305.0,4554334.557,-1.599,1.6,2.9,4.0,2.366,2.357,9.016,8.182
309.0,4602008.89,-1.599,1.6,2.9,4.0,2.362,2.359,9.003,8.193
313.0,4662148.154,-1.599,1.6,2.9,4.0,2.36,2.362,8.996,8.199
317.0,4722233.736,-1.599,1.6,2.9,4.0,2.368,2.364,9.023,8.212
321.0,4782446.445,-1.599,1.6,2.9,4.0,2.363,2.361,9.005,8.198
325.0,4836364.605,-1.599,1.6,2.9,4.0,2.358,2.345,8.992,8.138
329.0,4896431.59,-1.599,1.6,2.9,4.0,2.363,2.36,9.003,8.197
333.0,4950312.855,-1.599,1.6,2.9,4.0,2.356,2.357,8.983,8.182
337.0,5010390.37,-1.599,1.6,2.9,4.0,2.353,2.339,8.976,8.115
341.0,5070789.749,-1.599,1.6,2.9,4.0,2.351,2.337,8.965,8.106
345.0,5130952.193,-1.599,1.6,2.9,4.0,2.345,2.347,8.946,8.143
349.0,5184822.894,-1.599,1.6,2.9,4.0,2.34,2.343,8.93,8.129
353.0,5244998.691,-1.599,1.6,2.9,4.0,2.347,2.332,8.952,8.086
357.0,5298734.434,-1.599,1.6,2.9,4.0,1.782,1.792,6.7,6.092
361.0,5358986.565,-1.599,1.6,2.9,4.0,2.339,2.343,8.927,8.127
365.0,5412694.258,-1.599,1.6,2.9,4.0,1.776,1.777,6.675,6.034
369.0,5472936.602,-1.599,1.6,2.9,4.0,2.34,2.345,8.929,8.136
373.0,5533128.585,-1.599,1.6,2.9,4.0,2.337,2.34,8.918,8.117
377.0,5586852.37,-1.599,1.6,2.9,4.0,2.347,2.336,8.952,8.101
381.0,5647105.119,-1.599,1.6,2.9,4.0,2.348,2.34,8.963,8.118
385.0,5707247.64,-1.599,1.6,2.9,4.0,2.334,2.336,8.909,8.103
389.0,5767343.571,-1.599,1.6,2.9,4.0,2.335,2.328,8.91,8.072
393.0,5827437.952,-1.599,1.6,2.9,4.0,2.334,2.334,8.909,8.095
397.0,5881048.449,-1.599,1.6,2.9,4.0,1.769,1.782,6.653,6.055
401.0,5921908.655,-1.599,1.6,2.9,4.0,2.334,2.337,8.912,8.104
405.0,5982106.742,-1.599,1.6,2.9,4.0,2.326,2.33,8.881,8.077
409.0,6042314.798,-1.599,1.6,2.9,4.0,2.315,2.325,8.842,8.058
413.0,6102321.172,-1.599,1.6,2.9,4.0,2.328,2.297,8.885,7.961
417.0,6162435.783,-1.599,1.6,2.9,4.0,2.324,2.321,8.875,8.047
421.0,6222581.916,-1.599,1.6,2.9,4.0,2.312,2.312,8.834,8.012
425.0,6282728.979,-1.599,1.6,2.9,4.0,2.314,2.308,8.842,7.994
429.0,6342862.694,-1.599,1.6,2.9,4.0,2.313,2.308,8.837,7.995
433.0,6402959.339,-1.599,1.6,2.9,4.0,2.3,2.31,8.795,8.003
437.0,6462968.313,-1.599,1.6,2.9,4.0,2.299,2.308,8.789,7.994
441.0,6523057.073,-1.599,1.6,2.9,4.0,2.305,2.312,8.81,8.008
445.0,6583028.789,-1.599,1.6,2.9,4.0,2.307,2.298,8.813,7.961
449.0,6643175.499,-1.599,1.6,2.9,4.0,2.29,2.299,8.757,7.959
453.0,6703275.916,-1.599,1.601,2.9,4.0,2.302,2.279,8.8,7.895
457.0,6763439.653,-1.599,1.6,2.9,4.0,2.296,2.298,8.778,7.956
461.0,6823543.238,-1.599,1.6,2.9,4.0,2.292,2.297,8.765,7.95
465.0,6883680.938,-1.599,1.6,2.9,4.0,2.29,2.266,8.758,7.838
469.0,6943777.796,-1.599,1.6,2.9,4.0,2.285,2.287,8.744,7.917
473.0,7003895.818,-1.599,1.6,2.9,4.0,2.278,2.283,8.718,7.9
477.0,7063885.454,-1.599,1.6,2.9,4.0,2.266,2.286,8.682,7.908
481.0,7117309.63,-1.599,1.6,2.9,4.0,2.283,2.284,8.734,7.907
485.0,7170722.928,-1.599,1.6,2.9,4.0,2.268,2.284,8.686,7.902
489.0,7230812.68,-1.599,1.6,2.9,4.0,2.282,2.268,8.733,7.841
493.0,7290876.995,-1.599,1.6,2.9,4.0,2.281,2.28,8.73,7.891
497.0,7351083.66,-1.599,1.6,2.9,4.0,2.271,2.277,8.695,7.88
501.0,7411181.295,-1.599,1.6,2.9,4.0,2.257,2.263,8.648,7.826
505.0,7471096.439,-1.599,1.6,2.9,4.0,2.269,2.27,8.687,7.854
509.0,7531148.795,-1.599,1.6,2.9,4.0,2.271,2.273,8.694,7.862
513.0,7591200.178,-1.599,1.6,2.9,4.0,2.264,2.268,8.669,7.843
517.0,7651122.758,-1.599,1.6,2.9,4.0,2.27,2.245,8.691,7.765
521.0,7711170.007,-1.599,1.6,2.9,4.0,2.262,2.262,8.664,7.824
525.0,7771036.64,-1.599,1.6,2.9,4.0,2.247,2.253,8.613,7.783
529.0,7831094.621,-1.599,1.6,2.9,4.0,2.262,2.242,8.662,7.748
533.0,7891220.76,-1.599,1.6,2.9,4.0,2.256,2.264,8.643,7.83
537.0,7951330.879,-1.599,1.6,2.9,4.0,2.239,2.258,8.588,7.804
541.0,8011331.679,-1.599,1.6,2.9,4.0,2.245,2.229,8.61,7.7
545.0,8071200.937,-1.599,1.6,2.9,4.0,2.24,2.253,8.587,7.787
549.0,8131190.037,-1.599,1.6,2.9,4.0,2.245,2.25,8.608,7.777
553.0,8191196.24,-1.599,1.6,2.9,4.0,2.222,2.232,8.529,7.709
557.0,8251167.127,-1.599,1.6,2.9,4.0,2.243,2.251,8.6,7.779
561.0,8311279.984,-1.599,1.6,2.9,4.0,2.24,2.244,8.589,7.753
565.0,8371349.078,-1.599,1.6,2.9,4.0,2.238,2.221,8.582,7.663
569.0,8431152.957,-1.599,1.6,2.9,4.0,2.244,2.221,8.603,7.675
573.0,8484232.494,-1.599,1.6,2.9,4.0,2.246,2.237,8.614,7.727
577.0,8537282.129,-1.599,1.6,2.9,4.0,2.215,2.234,8.501,7.713
581.0,8597252.464,-1.599,1.6,2.9,4.0,2.234,2.238,8.569,7.731
585.0,8657136.523,-1.599,1.6,2.9,4.0,2.229,2.219,8.551,7.674
589.0,8710090.229,-1.599,1.6,2.899,4.0,2.219,2.229,8.528,7.698
593.0,8770102.346,-1.599,1.6,2.9,4.0,2.228,2.239,8.549,7.732
597.0,8830087.43,-1.599,1.6,2.9,4.0,2.224,2.228,8.534,7.692
601.0,8882941.253,-1.599,1.6,2.9,4.0,2.212,2.221,8.502,7.667
605.0,8943031.093,-1.599,1.6,2.9,4.0,2.226,2.222,8.542,7.679
609.0,9003091.735,-1.599,1.6,2.9,4.0,2.193,2.216,8.43,7.651
613.0,9063125.573,-1.599,1.6,2.9,4.0,2.192,2.191,8.427,7.558
617.0,9117830.959,-1.599,1.6,3.406,4.0,2.209,0.035,8.484,0.136

File: UL-PUR_R15-OV3_18650_NCA_23C_2.5-96.5_0.5-0.5C_c_cycle_data.csv
Cycle_Index,Test_Time (s),Min_Current (A),Max_Current (A),Min_Voltage (V),Max_Voltage (V),Charge_Capacity (Ah),Discharge_Capacity (Ah),Charge_Energy (Wh),Discharge_Energy (Wh)
1.0,17839.755,-1.133,1.134,2.9,4.0,1.6,2.7,6.155,9.424
5.0,104216.25,-1.133,1.134,2.9,4.0,2.698,2.695,10.09,9.404
9.0,185040.696,-1.133,1.134,2.9,4.0,2.695,2.693,10.08,9.399
13.0,270999.905,-1.133,1.134,2.9,4.0,2.694,2.691,10.074,9.389
17.0,351934.198,-1.133,1.134,2.9,4.0,2.691,2.688,10.065,9.377
21.0,438124.409,-1.133,1.134,2.9,4.0,2.688,2.686,10.059,9.365
25.0,518785.061,-1.133,1.134,2.9,4.0,2.688,2.685,10.054,9.369
29.0,604508.719,-1.133,1.134,2.9,4.0,2.687,2.684,10.049,9.367
33.0,684950.561,-1.133,1.134,2.9,4.0,2.686,2.681,10.044,9.354
37.0,770968.5,-1.133,1.134,2.9,4.0,2.683,2.679,10.036,9.342
41.0,856960.636,-1.133,1.134,2.9,4.0,2.68,2.678,10.028,9.333
45.0,942850.267,-1.133,1.134,2.9,4.0,2.679,2.676,10.025,9.323
49.0,1028673.182,-1.133,1.134,2.9,4.0,2.677,2.674,10.017,9.32
53.0,1099210.176,-1.6,1.6,2.9,4.0,2.677,2.675,10.102,9.218
57.0,1165979.402,-1.6,1.6,2.9,4.0,2.675,2.498,10.095,8.697
61.0,1226652.286,-1.61,1.6,2.9,4.0,2.492,2.494,9.452,8.683
65.0,1287296.824,-1.6,1.6,2.9,4.0,2.495,2.494,9.463,8.683
69.0,1342252.952,-1.6,1.6,2.9,4.0,1.98,1.981,7.408,6.767
73.0,1402935.634,-1.6,1.6,2.9,4.0,2.484,2.481,9.424,8.634
77.0,1463499.784,-1.6,1.6,2.9,4.0,2.483,2.488,9.422,8.657
81.0,1524149.516,-1.6,1.6,2.9,4.0,2.476,2.479,9.398,8.624
85.0,1584835.493,-1.6,1.6,2.9,4.0,2.47,2.469,9.377,8.588
89.0,1645514.779,-1.6,1.6,2.9,4.0,2.474,2.479,9.392,8.619
93.0,1706230.722,-1.6,1.6,2.9,4.0,2.474,2.468,9.392,8.587
97.0,1766821.237,-1.6,1.6,2.9,4.001,2.489,2.49,9.44,8.662
101.0,1827461.483,-1.606,1.6,2.9,4.001,2.492,2.486,9.45,8.648
105.0,1882289.892,-1.6,1.6,2.9,4.0,2.413,2.402,9.19,8.337
109.0,1937262.285,-1.6,1.6,2.9,4.0,2.457,2.456,9.337,8.537
113.0,1998001.37,-1.6,1.6,2.9,4.0,2.448,2.443,9.307,8.486
117.0,2058704.21,-1.6,1.6,2.9,4.0,2.436,2.429,9.265,8.435
121.0,2119436.347,-1.6,1.6,2.9,4.0,2.443,2.438,9.29,8.471
125.0,2180107.184,-1.6,1.6,2.9,4.0,2.443,2.447,9.289,8.502
129.0,2240811.496,-1.6,1.6,2.9,4.0,2.442,2.427,9.285,8.426
133.0,2301514.317,-1.6,1.6,2.9,4.0,2.425,2.421,9.229,8.41
137.0,2362332.638,-1.6,1.6,2.9,4.0,2.425,2.424,9.23,8.413
141.0,2423145.895,-1.6,1.6,2.9,4.0,2.424,2.42,9.225,8.4
145.0,2483708.351,-1.6,1.6,2.9,4.0,2.412,2.415,9.181,8.379
149.0,2544476.575,-1.6,1.6,2.9,4.0,2.434,2.417,9.258,8.389
153.0,2605351.327,-1.6,1.6,2.9,4.0,2.422,2.407,9.221,8.35
157.0,2666174.051,-1.6,1.6,2.9,4.0,2.399,2.401,9.141,8.326
161.0,2727026.185,-1.6,1.6,2.9,4.0,2.392,2.399,9.118,8.32
165.0,2787988.45,-1.6,1.6,2.9,4.0,2.396,2.39,9.131,8.284
169.0,2848899.824,-1.6,1.6,2.9,4.0,2.393,2.394,9.121,8.301
173.0,2909874.684,-1.6,1.6,2.9,4.0,2.413,2.394,9.187,8.305
177.0,2970782.674,-1.6,1.6,2.9,4.0,2.387,2.388,9.1,8.278
181.0,3031694.566,-1.6,1.6,2.9,4.0,2.388,2.39,9.104,8.285
185.0,3086061.226,-1.6,1.6,2.9,4.0,2.388,2.38,9.109,8.246
189.0,3147028.903,-1.6,1.6,2.9,4.0,2.376,2.383,9.063,8.257
193.0,3208029.447,-1.606,1.6,2.9,4.0,2.383,2.387,9.087,8.272
197.0,3268980.949,-1.6,1.6,2.9,4.0,2.393,2.392,9.12,8.292
201.0,3323520.29,-1.6,1.6,2.9,4.0,2.388,2.383,9.109,8.255
205.0,3384464.457,-1.6,1.6,2.9,4.0,2.382,2.378,9.082,8.237
209.0,3439074.337,-1.6,1.6,2.9,4.0,2.38,2.376,9.077,8.232
213.0,3500066.831,-1.6,1.6,2.9,4.0,2.376,2.375,9.064,8.229
217.0,3561082.073,-1.6,1.6,2.9,4.0,2.375,2.368,9.06,8.202
221.0,3622090.227,-1.6,1.6,2.9,4.0,2.371,2.37,9.049,8.211
225.0,3683142.3,-1.6,1.6,2.9,4.0,2.372,2.392,9.049,8.283
229.0,3737700.496,-1.6,1.6,2.9,4.0,2.369,2.366,9.041,8.193
233.0,3798751.271,-1.6,1.6,2.9,4.0,2.366,2.368,9.031,8.198
237.0,3859751.003,-1.6,1.6,2.9,4.0,2.357,2.365,9.001,8.189
241.0,3914288.183,-1.6,1.6,2.9,4.0,2.362,2.362,9.016,8.179
245.0,3975337.072,-1.6,1.6,2.9,4.0,2.361,2.361,9.013,8.178
249.0,4036410.652,-1.6,1.6,2.9,4.0,2.362,2.359,9.017,8.169
253.0,4097504.495,-1.6,1.6,2.9,4.0,2.364,2.356,9.023,8.156
257.0,4158532.295,-1.6,1.6,2.9,4.0,2.351,2.349,8.979,8.13
261.0,4219482.638,-1.6,1.6,2.9,4.0,2.355,2.352,8.991,8.14
265.0,4280572.58,-1.6,1.6,2.9,4.0,2.354,2.352,8.989,8.139
269.0,4334786.37,-1.6,1.6,2.9,4.0,2.358,2.35,9.003,8.133
273.0,4395892.371,-1.6,1.6,2.9,4.0,2.353,2.357,8.985,8.157
277.0,4456894.569,-1.6,1.6,2.9,4.0,2.35,2.35,8.976,8.134
281.0,4517848.731,-1.6,1.6,2.9,4.0,2.349,2.346,8.971,8.121
285.0,4578917.939,-1.6,1.6,2.9,4.0,2.346,2.349,8.961,8.13
289.0,4639970.283,-1.6,1.6,2.9,4.0,2.344,2.337,8.954,8.086
293.0,4701026.334,-1.6,1.6,2.9,4.0,2.349,2.344,8.971,8.111
297.0,4762053.353,-1.6,1.6,2.9,4.0,2.34,2.338,8.938,8.089
301.0,4823110.744,-1.6,1.6,2.9,4.0,2.334,2.328,8.921,8.051
305.0,4884039.184,-1.6,1.6,2.9,4.0,2.341,2.336,8.942,8.083
309.0,4944952.612,-1.6,1.6,2.9,4.0,2.329,2.332,8.904,8.068
313.0,5005952.128,-1.6,1.6,2.9,4.0,2.333,2.332,8.915,8.064
317.0,5066924.634,-1.6,1.6,2.9,4.0,2.322,2.319,8.881,8.017
321.0,5127791.111,-1.6,1.6,2.9,4.0,2.337,2.336,8.928,8.081
325.0,5188722.3,-1.6,1.6,2.9,4.0,2.32,2.33,8.873,8.058
329.0,5249507.887,-1.6,1.6,2.9,4.0,2.329,2.323,8.902,8.033
333.0,5310318.103,-1.6,1.6,2.9,4.0,2.328,2.327,8.898,8.05
337.0,5364351.965,-1.6,1.6,2.9,4.0,1.712,1.712,6.446,5.787
341.0,5418655.653,-1.6,1.6,2.9,4.0,2.309,2.316,8.836,8.004
345.0,5479543.856,-1.6,1.6,2.9,4.0,2.318,2.308,8.867,7.975
349.0,5540549.549,-1.6,1.6,2.9,4.0,2.315,2.306,8.853,7.969
353.0,5594668.215,-1.6,1.6,2.9,4.0,2.309,2.309,8.84,7.98
357.0,5648877.096,-1.6,1.6,2.9,4.0,1.732,1.737,6.519,5.88
361.0,5709903.119,-1.6,1.6,2.9,4.0,2.325,2.323,8.888,8.032
365.0,5770835.796,-1.6,1.6,2.9,4.0,2.316,2.31,8.858,7.987
369.0,5831806.694,-1.6,1.6,2.9,4.0,2.312,2.305,8.843,7.965
373.0,5892814.553,-1.6,1.6,2.9,4.0,2.298,2.297,8.796,7.936
377.0,5946977.256,-1.6,1.6,2.9,4.0,2.29,2.294,8.773,7.921
381.0,6008037.62,-1.6,1.6,2.9,4.0,2.299,2.295,8.798,7.926
385.0,6068937.92,-1.6,1.6,2.9,4.0,2.297,2.291,8.793,7.913
389.0,6129830.673,-1.6,1.6,2.9,4.0,2.298,2.299,8.797,7.941
393.0,6190703.95,-1.6,1.6,2.9,4.0,2.297,2.296,8.79,7.934
397.0,6251451.232,-1.6,1.6,2.9,4.0,2.292,2.29,8.776,7.909
401.0,6312202.589,-1.6,1.6,2.9,4.0,2.298,2.283,8.795,7.892
405.0,6366085.302,-1.6,1.6,2.9,4.0,1.701,1.706,6.407,5.769
409.0,6427162.244,-1.6,1.6,2.9,4.0,2.288,2.293,8.761,7.922
413.0,6488050.165,-1.6,1.6,2.9,5.334,2.285,2.286,8.765,7.896
417.0,6548979.014,-1.6,1.6,2.9,4.0,2.273,2.267,8.713,7.824
421.0,6610001.684,-1.6,1.6,2.9,4.0,2.273,2.27,8.712,7.835
425.0,6671058.058,-1.6,1.6,2.9,4.0,2.269,2.275,8.697,7.855
429.0,6724945.876,-1.6,1.6,2.9,4.0,2.269,2.264,8.699,7.81
433.0,6785875.43,-1.6,1.6,2.9,4.0,2.263,2.26,8.678,7.797
437.0,6846953.47,-1.6,1.6,2.9,4.0,2.263,2.258,8.678,7.787
441.0,6907968.01,-1.6,1.6,2.9,4.0,2.252,2.255,8.642,7.773
445.0,6968956.169,-1.6,1.6,2.9,4.0,2.26,2.256,8.669,7.781
449.0,7030133.666,-1.6,1.6,2.9,4.0,2.268,2.267,8.694,7.823
453.0,7076669.689,-1.6,1.6,2.9,4.0,1.624,1.632,6.131,5.499
457.0,7137886.703,-1.6,1.6,2.9,4.0,2.26,2.254,8.668,7.774
461.0,7198941.776,-1.6,1.6,2.9,4.0,2.259,2.252,8.665,7.766
465.0,7259968.703,-1.6,1.6,2.9,4.0,2.257,2.26,8.657,7.801
469.0,7320839.604,-1.6,1.6,2.9,4.0,2.256,2.251,8.652,7.764
473.0,7374695.732,-1.6,1.6,2.9,4.0,2.25,2.25,8.632,7.759
477.0,7428465.027,-1.6,1.6,2.9,4.0,1.638,1.641,6.182,5.532
481.0,7489566.18,-1.6,1.6,2.9,4.0,2.247,2.247,8.623,7.748
485.0,7550374.33,-1.6,1.6,2.9,4.0,2.248,2.252,8.629,7.767
489.0,7611204.042,-1.6,1.6,2.9,4.0,2.249,2.249,8.627,7.755
493.0,7672037.64,-1.6,1.6,2.9,4.0,2.248,2.239,8.626,7.722
497.0,7718428.584,-1.6,1.6,2.9,4.0,1.633,1.634,6.169,5.508
501.0,7772213.404,-1.6,1.6,2.9,4.0,2.253,2.245,8.649,7.737
505.0,7833243.33,-1.6,1.6,2.9,4.0,2.243,2.241,8.608,7.726
509.0,7894314.351,-1.6,1.6,2.9,4.0,2.241,2.238,8.601,7.714
513.0,7955272.832,-1.6,1.6,2.9,4.0,2.24,2.236,8.596,7.708
517.0,8016278.548,-1.6,1.6,2.9,4.0,2.238,2.231,8.59,7.69
521.0,8069883.747,-1.6,1.6,2.9,4.0,2.241,2.237,8.602,7.715
525.0,8130657.35,-1.6,1.6,2.9,4.0,2.237,2.236,8.589,7.712
529.0,8184343.122,-1.6,1.6,2.9,4.0,2.239,2.238,8.593,7.716
533.0,8237939.265,-1.6,1.6,2.9,4.0,2.228,2.221,8.557,7.651
537.0,8298836.828,-1.6,1.6,2.9,4.0,2.21,2.211,8.498,7.615
541.0,8359829.974,-1.6,1.6,2.898,4.0,2.213,2.206,8.506,7.593
545.0,8413350.566,-1.6,1.6,2.9,4.0,2.22,2.218,8.531,7.637
549.0,8474252.06,-1.6,1.6,2.9,4.0,2.204,2.213,8.476,7.624
553.0,8535208.009,-1.6,1.6,2.9,4.0,2.236,2.209,8.584,7.606
557.0,8596093.756,-1.6,1.6,2.9,4.0,2.217,2.215,8.518,7.632
561.0,8656911.311,-1.6,1.6,2.9,4.0,2.217,2.214,8.518,7.627
565.0,8717671.747,-1.6,1.6,2.9,4.0,2.215,2.211,8.509,7.614
569.0,8778441.573,-1.6,1.6,2.9,4.0,2.213,2.21,8.505,7.612
573.0,8839193.301,-1.6,1.6,2.9,4.0,2.213,2.203,8.504,7.586
577.0,8899786.127,-1.6,1.6,2.9,4.0,2.202,2.2,8.468,7.576
581.0,8960648.03,-1.6,1.6,2.9,4.0,2.207,2.204,8.484,7.59
585.0,9021291.201,-1.6,1.6,2.9,4.0,2.205,2.199,8.477,7.576
589.0,9081967.059,-1.6,1.6,2.9,4.0,2.203,2.2,8.471,7.573
593.0,9135167.604,-1.6,1.6,2.9,4.0,2.212,2.165,8.507,7.437
597.0,9196137.062,-1.6,1.6,2.9,4.0,2.167,2.189,8.346,7.533
601.0,9256998.222,-1.6,1.6,2.9,4.0,2.195,2.186,8.444,7.524
605.0,9317854.938,-1.6,1.6,2.9,4.0,2.193,2.195,8.436,7.556
609.0,9378690.51,-1.6,1.6,2.9,4.0,2.192,2.191,8.435,7.539
613.0,9439416.606,-1.6,1.6,2.9,4.0,2.192,2.191,8.433,7.544
617.0,9500246.961,-1.6,1.6,2.9,4.0,2.193,2.191,8.436,7.54
621.0,9560816.04,-1.6,1.6,2.9,4.0,2.194,2.191,8.436,7.541
625.0,9621340.237,-1.6,1.6,2.9,4.0,2.194,2.186,8.441,7.525
629.0,9674303.244,-1.6,1.6,2.9,4.0,1.548,1.569,5.86,5.274
633.0,9734929.046,-1.6,1.6,2.9,4.0,2.186,2.186,8.41,7.524
637.0,9795486.911,-1.6,1.6,2.9,4.0,2.18,2.182,8.39,7.509
641.0,9856132.6,-1.6,1.6,2.9,4.0,2.186,2.175,8.412,7.486
645.0,9916904.385,-1.6,1.6,2.9,4.0,2.172,2.17,8.364,7.465
649.0,9977745.865,-1.6,1.6,2.9,4.0,2.173,2.176,8.366,7.487
652.0,10018699.325,-1.6,1.6,3.408,4.0,2.178,0.269,8.384,1.016