Folder: ML-project/Li-ion_Batteries (part 4)

File: CALCE_CX2-38_prism_LCO_25C_0-100_0.5-0.5C_h_cycle_data.csv
Cycle_Index,Start_Time,End_Time,Test_Time (s),Min_Current (A),Max_Current (A),Min_Voltage (V),Max_Voltage (V),Charge_Capacity (Ah),Discharge_Capacity (Ah),Charge_Energy (Wh),Discharge_Energy (Wh)
1.0,,,13790.3,-1.349,1.189,2.699,4.2,1.396,1.362,5.604,4.889
15.0,,,202245.106,-1.349,1.171,2.699,4.2,1.354,1.33,5.41,4.791
29.0,,,383390.049,-1.349,1.155,2.699,4.2,1.345,1.324,5.366,4.79
43.0,,,565507.001,-1.349,1.158,2.699,4.2,1.323,1.301,5.287,4.688
57.0,,,748618.465,-1.349,1.162,2.699,4.2,1.354,1.332,5.402,4.816
71.0,,,933128.614,-1.349,1.167,2.699,4.2,1.309,1.286,5.242,4.611
85.0,,,1114968.924,-1.349,1.159,2.699,4.2,1.293,1.272,5.176,4.567
99.0,,,1282230.792,-1.349,1.15,2.699,4.2,1.285,1.268,5.14,4.568
113.0,,,1461146.956,-1.349,1.152,2.699,4.2,1.277,1.258,5.109,4.535
127.0,,,1639142.072,-1.349,1.142,2.699,4.2,1.276,1.257,5.098,4.544
141.0,,,1812000.199,-1.349,1.144,2.699,4.2,1.265,1.238,5.055,4.454
155.0,,,1989988.72,-1.349,1.144,2.699,4.2,1.271,1.244,5.081,4.474
169.0,,,2166225.861,-1.349,1.14,2.699,4.2,1.262,1.245,5.041,4.496
183.0,,,2341647.558,-1.349,1.145,2.699,4.2,1.248,1.22,4.992,4.382
197.0,,,2517323.99,-1.349,1.147,2.699,4.2,1.268,1.25,5.07,4.512
211.0,,,2689431.632,-1.349,1.141,2.699,4.2,1.259,1.241,5.027,4.488
225.0,,,2863714.905,-1.349,1.143,2.699,4.2,1.245,1.227,4.976,4.435
239.0,,,3037346.75,-1.349,1.134,2.699,4.2,1.232,1.214,4.929,4.382
253.0,,,3200361.815,-1.349,1.163,2.699,4.2,1.235,1.215,4.956,4.357
267.0,,,3358723.114,-1.349,1.157,2.699,4.2,1.225,1.209,4.909,4.353
281.0,,,3531838.615,-1.349,1.146,2.699,4.2,1.222,1.205,4.89,4.346
295.0,,,3699734.66,-1.349,1.141,2.699,4.2,1.204,1.194,4.832,4.302
309.0,,,3872013.15,-1.349,1.152,2.699,4.2,1.221,1.202,4.896,4.326
323.0,,,4044042.47,-1.349,1.141,2.699,4.2,1.21,1.191,4.846,4.291
337.0,,,4214701.125,-1.349,1.143,2.699,4.2,1.193,1.178,4.784,4.236
351.0,,,4384849.05,-1.349,1.146,2.699,4.2,1.181,1.169,4.738,4.198
365.0,,,4556434.256,-1.349,1.147,2.699,4.2,1.202,1.182,4.815,4.255
379.0,,,4722386.156,-1.349,1.148,2.699,4.2,1.176,1.162,4.725,4.17
393.0,,,4887493.634,-1.349,0.675,2.699,4.198,0.952,0.95,3.784,3.359
407.0,,,5056588.147,-1.349,1.159,2.699,4.2,1.195,1.175,4.797,4.224
421.0,,,5227707.474,-1.349,1.158,2.699,4.2,1.189,1.171,4.767,4.213
435.0,,,5397090.386,-1.349,1.141,2.699,4.2,1.176,1.157,4.715,4.158
449.0,,,5565075.073,-1.349,1.142,2.699,4.2,1.186,1.167,4.745,4.212
463.0,,,5730571.43,-1.349,1.143,2.699,4.2,1.181,1.163,4.736,4.186
477.0,,,5895276.602,-1.349,1.149,2.699,4.2,1.167,1.147,4.681,4.12
491.0,,,6058940.989,-1.349,1.134,2.699,4.2,1.177,1.158,4.712,4.179
505.0,,,6222497.023,-1.349,1.135,2.699,4.2,1.169,1.15,4.681,4.149
519.0,,,6389966.045,-1.349,1.146,2.699,4.2,1.158,1.137,4.644,4.086
533.0,,,6552275.501,-1.349,1.153,2.699,4.2,1.155,1.137,4.632,4.09
547.0,,,6717771.845,-1.349,1.146,2.699,4.2,1.16,1.138,4.646,4.102
561.0,,,6884040.081,-1.349,1.162,2.699,4.2,1.142,1.111,4.588,3.969
575.0,,,7039034.924,-1.349,1.17,2.699,4.2,1.132,1.122,4.558,4.017
589.0,,,7205330.532,-1.349,1.162,2.699,4.2,1.127,1.108,4.53,3.96
603.0,,,7370088.3,-1.349,1.153,2.699,4.2,1.136,1.117,4.56,4.01
617.0,,,7535249.808,-1.349,1.17,2.699,4.2,1.125,1.111,4.526,3.982
631.0,,,7700153.409,-1.349,1.164,2.699,4.2,1.114,1.094,4.484,3.91
645.0,,,7859902.896,-1.349,1.162,2.699,4.2,1.106,1.089,4.451,3.893
659.0,,,8019405.59,-1.349,1.163,2.699,4.2,1.121,1.103,4.505,3.96
673.0,,,8179028.518,-1.349,1.167,2.699,4.2,1.1,1.085,4.428,3.873
687.0,,,8337455.458,-1.349,1.166,2.699,4.2,1.094,1.078,4.405,3.848
701.0,,,8500126.583,-1.349,1.157,2.699,4.2,1.109,1.091,4.454,3.915
715.0,,,8662662.713,-1.349,1.163,2.699,4.2,1.103,1.091,4.455,3.911
729.0,,,8825400.683,-1.349,1.156,2.699,4.2,1.104,1.085,4.438,3.889
743.0,,,8977514.926,-1.349,1.145,2.699,4.2,1.116,1.099,4.48,3.949
757.0,,,9135321.484,-1.349,1.168,2.699,4.2,1.078,1.067,4.344,3.81
771.0,,,9291845.37,-1.349,1.161,2.699,4.2,1.068,1.051,4.305,3.746
785.0,,,9452127.601,-1.349,1.162,2.699,4.2,1.068,1.053,4.302,3.756
799.0,,,9609388.747,-1.349,1.182,2.699,4.2,1.072,1.055,4.317,3.765
813.0,,,9761077.119,-1.349,1.167,2.699,4.2,1.056,1.038,4.26,3.693
827.0,,,9920348.791,-1.349,1.175,2.699,4.2,1.038,1.02,4.193,3.619
841.0,,,10079356.178,-1.349,1.175,2.699,4.2,1.045,1.026,4.221,3.643
855.0,,,10238793.318,-1.349,1.187,2.699,4.2,1.027,1.008,4.153,3.567
869.0,,,10392613.544,-1.349,1.183,2.699,4.2,1.015,1.003,4.105,3.555
883.0,,,10546114.966,-1.349,1.18,2.699,4.2,1.016,0.996,4.11,3.524
897.0,,,10703912.747,-1.349,1.18,2.699,4.2,1.012,0.994,4.094,3.521
911.0,,,10848809.393,-1.349,1.176,2.699,4.2,1.001,0.985,4.052,3.489
925.0,,,11003922.804,-1.349,1.178,2.699,4.2,0.985,0.966,3.987,3.417
939.0,,,11153510.444,-1.349,1.187,2.699,4.2,0.972,0.956,3.937,3.38
953.0,,,11302651.567,-1.349,1.185,2.699,4.2,0.957,0.94,3.883,3.316
967.0,,,11455255.809,-1.349,1.178,2.699,4.2,0.982,0.963,3.979,3.4
981.0,,,11606659.656,-1.349,1.186,2.699,4.2,0.973,0.955,3.945,3.372
995.0,,,11761840.007,-1.349,1.21,2.699,4.2,0.963,0.944,3.906,3.329
1009.0,,,11912640.958,-1.349,1.207,2.699,4.2,0.975,0.954,3.953,3.37
1023.0,,,12063426.047,-1.349,1.187,2.699,4.2,0.956,0.939,3.879,3.311
1037.0,,,12217602.772,-1.349,1.182,2.699,4.2,0.946,0.931,3.839,3.278
1051.0,,,12370987.116,-1.349,1.188,2.699,4.2,0.927,0.914,3.766,3.21
1065.0,,,12521175.811,-1.349,1.218,2.699,4.2,0.962,0.926,3.905,3.257
1079.0,,,12670640.304,-1.349,1.197,2.699,4.2,0.946,0.929,3.838,3.27
1093.0,,,12823914.509,-1.349,1.205,2.699,4.2,0.923,0.909,3.751,3.19
1107.0,,,12977648.348,-1.349,1.184,2.699,4.2,0.958,0.929,3.884,3.271
1121.0,,,13131237.752,-1.349,1.199,2.699,4.2,0.927,0.915,3.765,3.211
1135.0,,,13284614.499,-1.349,1.191,2.699,4.2,0.923,0.905,3.749,3.173
1149.0,,,13437452.963,-1.349,1.197,2.699,4.2,0.911,0.894,3.705,3.128
1163.0,,,13590984.971,-1.349,1.195,2.699,4.2,0.906,0.892,3.684,3.121
1177.0,,,13743527.777,-1.349,1.202,2.699,4.2,0.903,0.883,3.671,3.088
1191.0,,,13894698.535,-1.349,1.201,2.699,4.2,0.887,0.869,3.609,3.036
1205.0,,,14037842.909,-1.349,0.675,2.699,4.198,0.603,0.613,2.42,2.107
1219.0,,,14190247.576,-1.349,1.203,2.699,4.2,0.888,0.869,3.612,3.034
1233.0,,,14339534.417,-1.349,1.224,2.699,4.2,0.872,0.855,3.549,2.982
1247.0,,,14488266.4,-1.349,1.187,2.699,4.2,0.855,0.844,3.483,2.941
1261.0,,,14632749.67,-1.349,1.184,2.699,4.2,0.88,0.861,3.579,3.004
1275.0,,,14782106.594,-1.349,1.212,2.699,4.2,0.872,0.854,3.548,2.978
1289.0,,,14925175.229,-1.349,1.223,2.699,4.2,0.849,0.832,3.461,2.893
1303.0,,,15067640.154,-1.349,1.2,2.699,4.2,0.854,0.824,3.485,2.864
1317.0,,,15218202.82,-1.349,1.2,2.699,4.2,0.849,0.831,3.459,2.885
1331.0,,,15361540.814,-1.349,1.199,3.196,4.2,0.846,0.721,3.447,2.557
1345.0,,,15510499.75,-1.349,1.183,2.699,4.2,0.843,0.824,3.434,2.859
1359.0,,,15653199.558,-1.349,1.186,2.699,4.2,0.827,0.808,3.371,2.799
1373.0,,,15799500.991,-1.349,1.208,2.699,4.2,0.813,0.795,3.315,2.749
1387.0,,,15946441.961,-1.349,1.208,2.699,4.2,0.821,0.799,3.348,2.769
1401.0,,,16083709.81,-1.349,0.727,2.699,4.2,0.081,0.838,0.343,2.896
1415.0,,,16221669.358,-1.349,1.186,2.699,4.2,0.777,0.762,3.174,2.622
1429.0,,,16363429.131,-1.349,1.196,2.699,4.2,0.771,0.752,3.146,2.587
1443.0,,,16498697.75,-1.349,1.181,2.699,4.2,0.754,0.741,3.084,2.543
1457.0,,,16635051.183,-1.349,1.193,2.699,4.2,0.752,0.736,3.074,2.521
1471.0,,,16773907.73,-1.349,1.174,2.699,4.2,0.727,0.712,2.973,2.433
1485.0,,,16910849.363,-1.349,1.181,2.699,4.2,0.718,0.708,2.939,2.419
1499.0,,,17041750.678,-1.349,1.181,2.699,4.2,0.718,0.703,2.938,2.403
1513.0,,,17172700.841,-1.349,1.174,2.699,4.2,0.7,0.682,2.868,2.322
1527.0,,,17305139.157,-1.349,1.166,2.699,4.2,0.68,0.665,2.789,2.259
1541.0,,,17435833.247,-1.349,1.18,2.699,4.2,0.671,0.656,2.751,2.225
1555.0,,,17568779.563,-1.349,1.168,2.699,4.2,0.69,0.691,2.827,2.358
1569.0,,,17703389.078,-1.349,1.168,2.699,4.2,0.719,0.705,2.939,2.411
1583.0,,,17837346.033,-1.349,1.176,2.699,4.2,0.741,0.725,3.027,2.484
1597.0,,,17960635.577,-1.349,1.179,2.699,4.2,0.685,0.654,2.801,2.222
1611.0,,,18082053.605,-1.349,1.17,2.699,4.2,0.683,0.669,2.798,2.282
1625.0,,,18213565.897,-1.349,1.18,2.699,4.2,0.677,0.637,2.769,2.16
1639.0,,,18327756.325,-1.349,1.173,2.699,4.2,0.599,0.582,2.463,1.959
1653.0,,,18446135.224,-1.349,1.156,2.699,4.2,0.58,0.574,2.386,1.935
1667.0,,,18562250.038,-1.349,1.164,2.699,4.2,0.566,0.544,2.328,1.821
1681.0,,,18679170.547,-1.349,1.18,2.699,4.2,0.586,0.559,2.408,1.88
1695.0,,,18795377.898,-1.349,1.165,2.699,4.2,0.565,0.556,2.328,1.868
1709.0,,,18903229.826,-1.349,1.151,2.699,4.2,0.543,0.517,2.235,1.725
1723.0,,,19012642.66,-1.349,1.149,2.699,4.2,0.512,0.498,2.11,1.659
1737.0,,,19123084.633,-1.349,1.167,2.699,4.2,0.55,0.528,2.264,1.768
1751.0,,,19224891.826,-1.349,1.169,2.699,4.2,0.487,0.467,2.012,1.549
1765.0,,,19326289.413,-1.349,1.15,2.699,4.2,0.47,0.46,1.943,1.524
1779.0,,,19418221.47,-1.349,1.172,2.699,4.2,0.455,0.439,1.88,1.452
1793.0,,,19516195.901,-1.349,1.157,2.699,4.2,0.453,0.439,1.872,1.453
1807.0,,,19612232.305,-1.349,1.161,2.699,4.2,0.438,0.424,1.814,1.401
1821.0,,,19697629.06,-1.349,1.14,2.699,4.2,0.424,0.407,1.756,1.342
1835.0,,,19785024.497,-1.349,1.144,2.699,4.2,0.398,0.385,1.651,1.268
1849.0,,,19872305.8,-1.349,1.127,2.699,4.2,0.37,0.36,1.534,1.18
1863.0,,,19957254.237,-1.349,1.141,2.699,4.2,0.433,0.405,1.792,1.33
1877.0,,,20045565.369,-1.349,1.132,2.699,4.2,0.376,0.37,1.56,1.216
1891.0,,,20129254.315,-1.349,1.13,2.699,4.2,0.367,0.352,1.522,1.154
1905.0,,,20211888.343,-1.349,1.123,2.699,4.2,0.39,0.379,1.615,1.248
1919.0,,,20297475.987,-1.349,1.117,2.699,4.2,0.36,0.319,1.496,1.044
1933.0,,,20367280.807,-1.349,1.116,2.699,4.2,0.326,0.321,1.354,1.047
1947.0,,,20437745.505,-1.349,1.132,2.699,4.2,0.283,0.277,1.179,0.899
1961.0,,,20513586.591,-1.35,1.125,2.699,4.2,0.341,0.337,1.415,1.102

File: UL-PUR_N10-EX9_18650_NCA_23C_0-100_0.5-0.5C_i_cycle_data.csv
Cycle_Index,Test_Time (s),Min_Current (A),Max_Current (A),Min_Voltage (V),Max_Voltage (V),Charge_Capacity (Ah),Discharge_Capacity (Ah),Charge_Energy (Wh),Discharge_Energy (Wh)
1.0,21868.26,-1.133,1.133,2.7,4.201,2.038,3.306,8.107,11.678
3.0,74106.761,-1.133,1.133,2.7,4.2,3.309,3.302,12.66,11.651
5.0,125953.074,-1.134,1.134,2.7,4.201,3.309,3.305,12.654,11.674
7.0,178140.687,-1.134,1.134,2.7,4.201,3.309,3.304,12.658,11.659
9.0,230430.262,-1.134,1.133,2.7,4.201,3.305,3.302,12.647,11.651
11.0,282775.553,-1.134,1.133,2.7,4.201,3.305,3.3,12.644,11.638
13.0,335160.335,-1.134,1.134,2.7,4.201,3.304,3.299,12.641,11.627
15.0,387993.152,-1.133,1.133,2.7,4.201,3.301,3.294,12.633,11.595
17.0,440924.82,-1.134,1.133,2.7,4.2,3.299,3.294,12.631,11.598
19.0,493555.016,-1.134,1.133,2.7,4.201,3.301,3.296,12.632,11.615
21.0,546232.605,-1.134,1.133,2.7,4.201,3.299,3.294,12.628,11.602
23.0,598963.182,-1.134,1.133,2.7,4.201,3.298,3.293,12.622,11.596
25.0,651615.569,-1.134,1.134,2.7,4.201,3.299,3.294,12.622,11.604
27.0,704785.72,-1.134,1.133,2.7,4.201,3.294,3.288,12.611,11.557
29.0,758167.997,-1.134,1.133,2.7,4.201,3.29,3.287,12.602,11.555
31.0,811809.402,-1.133,1.134,2.7,4.201,3.289,3.285,12.603,11.539
33.0,865506.248,-1.133,1.133,2.7,4.201,3.289,3.284,12.6,11.532
35.0,919280.127,-1.133,1.134,2.7,4.201,3.287,3.281,12.596,11.515
37.0,973484.599,-1.134,1.133,2.7,4.201,3.286,3.281,12.595,11.512
39.0,1027526.27,-1.133,1.133,2.7,4.201,3.285,3.28,12.588,11.507
41.0,1073062.473,-1.6,1.6,2.7,4.201,3.284,3.28,12.707,11.362
43.0,1115424.397,-1.6,1.6,2.7,4.201,3.281,3.278,12.695,11.349
45.0,1158067.425,-1.6,1.6,2.7,4.201,3.277,3.273,12.687,11.32
47.0,1194980.016,-1.6,1.6,2.7,4.201,3.016,3.026,11.738,10.652
49.0,1231393.182,-1.6,1.6,2.7,4.201,3.016,3.008,11.741,10.586
51.0,1261487.681,-1.6,1.6,2.7,4.2,2.497,2.496,9.562,8.62
53.0,1297867.004,-1.6,1.6,2.7,4.201,3.019,3.012,11.75,10.588
55.0,1334430.717,-1.6,1.6,2.7,4.201,3.003,3.01,11.699,10.577
57.0,1370980.663,-1.6,1.6,2.7,4.201,3.001,2.997,11.693,10.536
59.0,1400977.72,-1.6,1.6,2.6,4.201,3.001,2.991,11.696,10.511
61.0,1437562.642,-1.6,1.6,2.7,4.201,2.998,3.002,11.685,10.54
63.0,1474268.608,-1.6,1.6,2.7,4.201,2.997,2.996,11.68,10.517
65.0,1510991.811,-1.6,1.6,2.7,4.201,2.99,2.996,11.658,10.51
67.0,1547793.559,-1.6,1.6,2.7,4.201,2.995,2.984,11.678,10.474
69.0,1584588.793,-1.6,1.6,2.7,4.201,2.98,2.981,11.627,10.457
71.0,1621556.546,-1.6,1.6,2.7,4.201,2.993,2.988,11.671,10.476
73.0,1658396.783,-1.6,1.6,2.7,4.201,2.986,2.98,11.647,10.443
75.0,1695320.251,-1.6,1.6,2.7,4.201,2.983,2.98,11.639,10.446
77.0,1732255.685,-1.6,1.6,2.7,4.201,2.984,2.997,11.643,10.508
79.0,1769078.501,-1.6,1.6,2.7,4.201,3.0,3.003,11.694,10.533
81.0,1805557.208,-1.6,1.6,2.7,4.201,2.999,2.992,11.684,10.489
83.0,1842597.651,-1.6,1.6,2.7,4.201,3.006,3.001,11.715,10.517
85.0,1879884.2,-1.6,1.6,2.7,4.2,2.916,2.901,11.421,10.115
87.0,1917319.573,-1.6,1.6,2.7,4.2,2.94,2.955,11.501,10.333
89.0,1947334.009,-1.6,1.6,2.7,4.2,2.411,2.407,9.256,8.264
91.0,1984545.921,-1.6,1.6,2.683,4.2,2.965,2.95,11.582,10.312
93.0,2021822.674,-1.6,1.6,2.7,4.2,2.951,2.943,11.538,10.284
95.0,2059152.168,-1.6,1.6,2.7,4.2,2.938,2.93,11.494,10.226
97.0,2096637.361,-1.6,1.6,2.7,4.2,2.949,2.945,11.531,10.288
99.0,2134091.118,-1.6,1.6,2.7,4.201,2.949,2.954,11.532,10.325
101.0,2171469.399,-1.6,1.6,2.7,4.201,2.957,2.944,11.557,10.277
103.0,2208776.935,-1.6,1.6,2.7,4.201,2.946,2.935,11.519,10.241
105.0,2246325.445,-1.6,1.6,2.7,4.2,2.942,2.929,11.507,10.215
107.0,2283888.991,-1.6,1.6,2.7,4.201,2.933,2.923,11.48,10.197
109.0,2321546.8,-1.6,1.6,2.7,4.2,2.918,2.907,11.431,10.125
111.0,2359129.111,-1.6,1.6,2.689,4.2,2.92,2.917,11.438,10.167
113.0,2396842.434,-1.6,1.6,2.652,4.2,2.917,2.906,11.429,10.12
115.0,2434555.586,-1.6,1.6,2.7,4.2,2.918,2.914,11.433,10.152
117.0,2472252.193,-1.6,1.6,2.7,4.2,2.919,2.924,11.432,10.167
119.0,2510092.382,-1.6,1.6,2.7,4.201,2.915,2.907,11.423,10.122
121.0,2547871.04,-1.6,1.6,2.688,4.2,2.928,2.908,11.468,10.126
123.0,2585745.996,-1.6,1.6,2.7,4.2,2.902,2.899,11.381,10.087
125.0,2623894.942,-1.6,1.6,2.7,4.2,2.897,2.89,11.365,10.054
127.0,2661891.407,-1.6,1.6,2.7,4.2,2.893,2.889,11.351,10.043
129.0,2699834.019,-1.6,1.6,2.7,4.2,2.894,2.876,11.354,9.992
131.0,2737890.821,-1.6,1.6,2.7,4.2,2.887,2.881,11.331,10.011
133.0,2775782.66,-1.6,1.6,2.7,4.2,2.886,2.878,11.325,10.002
135.0,2813910.451,-1.6,1.6,2.7,4.2,2.881,2.878,11.312,9.996
137.0,2851956.412,-1.6,1.6,2.7,4.2,2.878,2.871,11.302,9.973
139.0,2890133.06,-1.6,1.6,2.7,4.2,2.884,2.893,11.321,10.061
141.0,2928081.948,-1.6,1.6,2.7,4.2,2.874,2.873,11.29,9.973
143.0,2958056.709,-1.6,1.6,2.7,4.2,2.267,2.258,8.741,7.681
145.0,2987929.021,-1.6,1.6,2.7,4.2,2.264,2.263,8.73,7.695
147.0,3026193.775,-1.6,1.6,2.653,4.2,2.875,2.867,11.292,9.95
149.0,3064324.82,-1.6,1.6,2.7,4.2,2.858,2.857,11.234,9.911
151.0,3094297.504,-1.6,1.6,2.674,4.2,2.248,2.249,8.674,7.644
153.0,3132628.284,-1.6,1.6,2.7,4.2,2.858,2.849,11.235,9.873
155.0,3171087.588,-1.6,1.6,2.7,4.2,2.859,2.849,11.241,9.878
157.0,3200936.855,-1.6,1.6,2.7,4.2,2.243,2.243,8.655,7.62
159.0,3239320.461,-1.6,1.6,2.7,4.2,2.86,2.855,11.242,9.9
161.0,3277711.948,-1.6,1.6,2.7,4.2,2.869,2.866,11.274,9.944
163.0,3307506.017,-1.6,1.6,2.7,4.2,2.236,2.235,8.631,7.589
165.0,3346039.7,-1.6,1.6,2.7,4.2,2.854,2.849,11.227,9.876
167.0,3384410.513,-1.6,1.6,2.7,4.2,2.849,2.839,11.206,9.836
169.0,3422821.732,-1.6,1.6,2.7,4.2,2.844,2.839,11.19,9.836
171.0,3461298.868,-1.6,1.6,2.7,4.2,2.845,2.833,11.191,9.814
173.0,3491071.908,-1.6,1.6,2.7,4.2,2.21,2.213,8.538,7.507
175.0,3529591.219,-1.6,1.6,2.7,4.2,2.838,2.838,11.172,9.827
177.0,3568145.105,-1.6,1.6,2.7,4.2,2.833,2.822,11.156,9.767
179.0,3606675.838,-1.6,1.6,2.7,4.2,2.833,2.826,11.153,9.782
181.0,3645213.417,-1.6,1.6,2.7,4.2,2.83,2.826,11.146,9.783
183.0,3683829.438,-1.6,1.6,2.7,4.2,2.829,2.842,11.138,9.841
185.0,3722516.925,-1.6,1.6,2.7,4.2,2.825,2.821,11.127,9.76
187.0,3761114.937,-1.6,1.6,2.7,4.2,2.818,2.819,11.104,9.757
189.0,3799650.655,-1.6,1.6,2.7,4.2,2.821,2.819,11.114,9.752
191.0,3838293.379,-1.6,1.6,2.7,4.2,2.818,2.804,11.102,9.697
193.0,3876979.001,-1.6,1.6,2.563,4.2,2.818,2.815,11.103,9.733
195.0,3906581.159,-1.6,1.6,2.7,4.2,2.176,2.177,8.413,7.373
197.0,3945314.46,-1.6,1.6,2.7,4.2,2.806,2.813,11.067,9.728
199.0,3983958.774,-1.6,1.6,2.7,4.2,2.814,2.807,11.091,9.711
201.0,4022759.094,-1.6,1.6,2.7,4.2,2.803,2.803,11.056,9.691
203.0,4052512.608,-1.6,1.6,2.7,4.2,2.808,2.801,11.075,9.68
205.0,4080195.549,0.179,1.6,3.368,4.2,2.696,0.0,10.604,0.0

File: UL-PUR_N10-NA7_18650_NCA_23C_0-100_0.5-0.5C_g_cycle_data.csv
Cycle_Index,Test_Time (s),Min_Current (A),Max_Current (A),Min_Voltage (V),Max_Voltage (V),Charge_Capacity (Ah),Discharge_Capacity (Ah),Charge_Energy (Wh),Discharge_Energy (Wh)
1.0,14451.102,-1.6,1.6,2.7,4.2,1.393,3.032,5.681,10.691
3.0,50989.115,-1.6,1.6,2.7,4.2,3.025,3.017,11.786,10.626
5.0,87554.373,-1.6,1.6,2.7,4.2,3.024,3.027,11.78,10.667
7.0,124081.916,-1.6,1.6,2.7,4.2,3.022,3.027,11.774,10.667
9.0,160481.432,-1.6,1.6,2.7,4.2,3.024,3.013,11.779,10.617
11.0,196908.36,-1.6,1.6,2.7,4.2,3.021,3.017,11.768,10.621
13.0,233405.797,-1.6,1.6,2.7,4.2,3.013,2.994,11.741,10.531
15.0,269939.834,-1.6,1.6,2.7,4.2,2.996,2.996,11.685,10.535
17.0,306533.519,-1.6,1.6,2.7,4.2,2.994,2.976,11.679,10.457
19.0,343231.268,-1.6,1.6,2.7,4.2,2.988,2.983,11.659,10.484
21.0,373030.997,-1.6,1.6,2.7,4.2,2.427,2.424,9.308,8.352
23.0,409741.117,-1.6,1.6,2.7,4.2,2.973,2.976,11.61,10.457
25.0,439601.205,-1.6,1.6,2.7,4.2,2.976,2.97,11.624,10.43
27.0,476289.552,-1.6,1.6,2.7,4.2,2.965,2.961,11.59,10.396
29.0,513099.462,-1.6,1.6,2.7,4.2,2.966,2.969,11.589,10.42
31.0,549808.181,-1.6,1.6,2.7,4.2,2.963,2.954,11.575,10.364
33.0,586649.209,-1.6,1.6,2.7,4.2,2.949,2.952,11.531,10.358
35.0,623426.485,-1.6,1.6,2.7,4.2,2.947,2.946,11.525,10.329
37.0,660285.9,-1.6,1.6,2.7,4.2,2.941,2.942,11.506,10.316
39.0,697251.419,-1.6,1.6,2.7,4.2,2.937,2.925,11.492,10.245
41.0,734203.689,-1.6,1.6,2.7,4.2,2.931,2.929,11.47,10.258
43.0,771097.659,-1.6,1.6,2.7,4.2,2.926,2.921,11.455,10.232
45.0,808093.229,-1.6,1.6,2.7,4.2,2.92,2.92,11.437,10.224
47.0,845050.278,-1.6,1.6,2.7,4.2,2.918,2.916,11.429,10.211
49.0,882030.243,-1.6,1.6,2.7,4.2,2.918,2.93,11.425,10.266
51.0,919007.771,-1.6,1.6,2.7,4.2,2.927,2.909,11.46,10.179
53.0,956044.175,-1.6,1.6,2.7,4.2,2.911,2.905,11.406,10.162
55.0,993029.226,-1.6,1.6,2.7,4.2,2.903,2.901,11.378,10.15
57.0,1030047.2,-1.6,1.6,2.7,4.2,2.903,2.899,11.376,10.141
59.0,1067264.065,-1.6,1.6,2.7,4.2,2.895,2.894,11.352,10.121
61.0,1104227.105,-1.6,1.6,2.7,4.2,2.892,2.891,11.337,10.108
63.0,1141324.317,-1.6,1.6,2.7,4.2,2.885,2.889,11.317,10.098
65.0,1178448.965,-1.6,1.6,2.7,4.2,2.886,2.886,11.321,10.087
67.0,1215513.556,-1.6,1.6,2.7,4.2,2.891,2.885,11.336,10.084
69.0,1252656.435,-1.6,1.6,2.7,4.2,2.884,2.885,11.312,10.084
71.0,1289744.991,-1.6,1.6,2.7,4.2,2.888,2.877,11.325,10.051
73.0,1326940.64,-1.6,1.6,2.7,4.2,2.877,2.872,11.289,10.033
75.0,1356346.885,-1.6,1.6,2.7,4.2,2.271,2.274,8.751,7.781
77.0,1385751.61,-1.6,1.6,2.7,4.2,2.26,2.265,8.711,7.748
79.0,1423095.245,-1.6,1.6,2.7,4.2,2.866,2.86,11.254,9.982
81.0,1460387.259,-1.6,1.6,2.7,4.2,2.862,2.855,11.241,9.962
83.0,1497686.479,-1.6,1.6,2.7,4.2,2.854,2.852,11.215,9.951
85.0,1534896.558,-1.6,1.6,2.7,4.2,2.851,2.851,11.202,9.945
87.0,1572206.815,-1.6,1.6,2.7,4.2,2.847,2.845,11.188,9.923
89.0,1609469.803,-1.6,1.6,2.7,4.2,2.845,2.847,11.183,9.927
91.0,1646712.192,-1.6,1.6,2.7,4.2,2.843,2.838,11.173,9.896
93.0,1684163.971,-1.6,1.6,2.7,4.2,2.844,2.835,11.181,9.887
95.0,1721451.31,-1.6,1.6,2.7,4.2,2.837,2.834,11.154,9.878
97.0,1758709.233,-1.6,1.6,2.7,4.2,2.833,2.832,11.141,9.871
99.0,1795981.076,-1.6,1.6,2.699,4.2,2.83,2.83,11.131,9.862
101.0,1833254.555,-1.6,1.6,2.7,4.2,2.829,2.821,11.126,9.827
103.0,1870574.454,-1.6,1.6,2.7,4.2,2.825,2.822,11.113,9.827
105.0,1907827.683,-1.6,1.6,2.7,4.2,2.821,2.821,11.101,9.826
107.0,1937177.298,-1.6,1.6,2.7,4.2,2.824,2.821,11.119,9.823
109.0,1974556.12,-1.6,1.6,2.7,4.2,2.818,2.821,11.091,9.821
111.0,2011869.255,-1.6,1.6,2.7,4.2,2.816,2.81,11.083,9.776
113.0,2049232.988,-1.6,1.6,2.7,4.2,2.81,2.806,11.062,9.765
115.0,2086306.798,-1.6,1.6,2.7,4.2,2.811,2.806,11.065,9.763
117.0,2123624.478,-1.6,1.6,2.7,4.2,2.804,2.801,11.041,9.746
119.0,2160974.368,-1.6,1.6,2.7,4.2,2.8,2.802,11.027,9.75
121.0,2198253.961,-1.6,1.6,2.7,4.2,2.799,2.798,11.021,9.732
123.0,2235562.193,-1.6,1.6,2.7,4.2,2.796,2.805,11.015,9.762
125.0,2272781.128,-1.6,1.6,2.7,4.2,2.797,2.795,11.015,9.721
127.0,2309874.134,-1.6,1.6,2.7,4.2,2.79,2.786,10.991,9.683
129.0,2347122.236,-1.6,1.6,2.7,4.2,2.792,2.795,11.0,9.723
131.0,2384409.203,-1.6,1.6,2.7,4.2,2.788,2.788,10.984,9.692
133.0,2413545.727,-1.6,1.6,2.7,4.2,2.797,2.783,11.025,9.674
135.0,2450782.92,-1.6,1.6,2.7,4.2,2.78,2.782,10.955,9.67
137.0,2488153.859,-1.6,1.6,2.7,4.2,2.78,2.781,10.958,9.673
139.0,2525393.753,-1.6,1.6,2.7,4.2,2.779,2.768,10.951,9.615
141.0,2562693.65,-1.6,1.6,2.7,4.2,2.771,2.772,10.927,9.631
143.0,2599847.491,-1.6,1.6,2.7,4.2,2.773,2.78,10.933,9.669
145.0,2637029.243,-1.6,1.6,2.7,4.2,2.768,2.761,10.914,9.586
147.0,2674311.499,-1.6,1.6,2.7,4.2,2.763,2.772,10.901,9.637
149.0,2711471.381,-1.6,1.6,2.7,4.2,2.769,2.764,10.916,9.601
151.0,2748750.952,-1.6,1.6,2.7,4.2,2.76,2.768,10.888,9.617
153.0,2777728.99,-1.6,1.6,2.7,4.2,2.771,2.75,10.934,9.544
155.0,2815041.484,-1.6,1.6,2.7,4.2,2.749,2.742,10.85,9.515
157.0,2852387.727,-1.6,1.6,2.7,4.2,2.748,2.756,10.848,9.572
159.0,2889542.411,-1.6,1.6,2.7,4.2,2.751,2.749,10.855,9.552
161.0,2926768.611,-1.6,1.6,2.7,4.2,2.737,2.735,10.811,9.488
163.0,2964038.594,-1.6,1.6,2.7,4.2,2.735,2.725,10.802,9.449
165.0,3001272.48,-1.6,1.6,2.7,4.2,2.731,2.729,10.789,9.465
167.0,3038499.556,-1.6,1.6,2.7,4.2,2.726,2.723,10.772,9.443
169.0,3075805.135,-1.6,1.6,2.7,4.2,2.719,2.721,10.749,9.432
171.0,3113102.953,-1.6,1.6,2.7,4.2,2.73,2.739,10.783,9.509
173.0,3150175.83,-1.6,1.6,2.7,4.2,2.723,2.715,10.762,9.411
175.0,3182110.051,-1.6,1.6,3.36,4.2,2.714,0.537,10.732,2.057