Folder: ML-project/Li-ion_Batteries (part 6)

File: UL-PUR_N15-OV3_18650_NCA_23C_0-100_0.5-0.5C_c_cycle_data.csv
Cycle_Index,Test_Time (s),Min_Current (A),Max_Current (A),Min_Voltage (V),Max_Voltage (V),Charge_Capacity (Ah),Discharge_Capacity (Ah),Charge_Energy (Wh),Discharge_Energy (Wh)
1.0,9486.796,-1.6,1.599,2.7,4.254,0.05,3.313,0.206,11.659
3.0,42708.815,-1.6,1.6,2.7,4.2,2.816,2.814,10.689,9.733
5.0,81036.039,-1.6,1.6,2.7,4.2,3.289,3.282,12.679,11.552
7.0,119485.988,-1.6,1.6,2.7,4.2,3.283,3.279,12.658,11.535
9.0,158050.416,-1.6,1.6,2.7,4.2,3.28,3.277,12.65,11.52
11.0,196751.657,-1.6,1.6,2.7,4.2,3.279,3.275,12.647,11.505
13.0,235630.289,-1.6,1.623,2.7,4.201,3.277,3.275,12.643,11.498
15.0,269506.7,-1.6,1.6,2.7,4.2,3.277,3.274,12.646,11.488
17.0,308631.827,-1.6,1.6,2.7,4.2,3.275,3.272,12.639,11.476
19.0,342698.257,-1.601,1.6,2.7,4.2,3.276,3.272,12.645,11.468
21.0,382114.914,-1.601,1.6,2.7,4.2,3.273,3.27,12.637,11.454
23.0,416402.324,-1.6,1.6,2.7,4.2,3.273,3.27,12.641,11.449
25.0,456018.408,-1.6,1.6,2.7,4.2,3.271,3.267,12.633,11.43
27.0,495989.117,-1.6,1.6,2.7,4.2,3.269,3.266,12.629,11.418
29.0,536137.446,-1.6,1.6,2.7,4.2,3.266,3.264,12.625,11.401
31.0,576417.215,-1.6,1.6,2.7,4.2,3.265,3.263,12.622,11.395
33.0,616548.28,-1.6,1.6,2.7,4.2,3.267,3.264,12.625,11.403
35.0,656821.006,-1.6,1.6,2.7,4.2,3.265,3.263,12.621,11.387
37.0,697159.708,-1.6,1.6,2.7,4.2,3.265,3.262,12.621,11.385
39.0,737795.508,-1.6,1.6,2.7,4.2,3.261,3.259,12.615,11.363
41.0,778487.844,-1.6,1.6,2.7,4.2,3.261,3.258,12.612,11.356
43.0,819356.786,-1.6,1.6,2.7,4.2,3.258,3.255,12.605,11.335
45.0,854590.943,-1.6,1.6,2.7,4.2,2.757,2.758,10.5,9.417
47.0,895546.003,-1.6,1.6,2.7,4.2,3.257,3.253,12.601,11.323
49.0,936825.624,-1.6,1.6,2.7,4.2,3.254,3.25,12.595,11.299
51.0,978078.66,-1.6,1.6,2.7,4.201,3.254,3.249,12.593,11.293
53.0,1019576.738,-1.6,1.6,2.7,4.2,3.251,3.248,12.588,11.283
55.0,1061344.1,-1.6,1.6,2.7,4.2,3.248,3.243,12.579,11.251
57.0,1103307.398,-1.6,1.6,2.7,4.2,3.244,3.243,12.574,11.253
59.0,1145300.399,-1.6,1.6,2.7,4.2,3.244,3.241,12.569,11.232
61.0,1187201.364,-1.6,1.6,2.7,4.2,3.245,3.244,12.572,11.258
63.0,1229145.4,-1.601,1.6,2.7,4.2,3.242,3.241,12.565,11.233
65.0,1271275.697,-1.6,1.6,2.7,4.2,3.241,3.238,12.563,11.22
67.0,1307292.011,-1.6,1.6,2.7,4.201,3.24,3.238,12.559,11.217
69.0,1349380.85,-1.6,1.6,2.7,4.201,3.24,3.238,12.558,11.217
71.0,1391775.73,-1.6,1.6,2.7,4.201,3.237,3.233,12.55,11.186
73.0,1434497.107,-1.6,1.6,2.7,4.2,3.233,3.232,12.544,11.177
75.0,1477300.387,-1.6,1.6,2.7,4.201,3.232,3.23,12.54,11.164
77.0,1520215.163,-1.6,1.6,2.7,4.2,3.23,3.228,12.533,11.15
79.0,1563056.503,-1.6,1.6,2.7,4.2,3.23,3.229,12.536,11.162
81.0,1605754.875,-1.6,1.6,2.7,4.201,3.232,3.228,12.534,11.151
83.0,1648609.664,-1.6,1.6,2.7,4.2,3.229,3.226,12.529,11.14
85.0,1691647.015,-1.6,1.6,2.7,4.201,3.228,3.224,12.524,11.125
87.0,1735251.18,-1.6,1.6,2.7,4.201,3.224,3.221,12.517,11.104
89.0,1778985.514,-1.6,1.6,2.7,4.201,3.219,3.216,12.504,11.077
91.0,1822843.846,-1.6,1.6,2.7,4.201,3.216,3.214,12.497,11.063
93.0,1866815.934,-1.601,1.6,2.7,4.201,3.213,3.211,12.488,11.047
95.0,1910724.884,-1.6,1.6,2.7,4.201,3.212,3.208,12.481,11.03
97.0,1954794.186,-1.601,1.6,2.7,4.201,3.209,3.207,12.474,11.026
99.0,1998945.093,-1.6,1.6,2.7,4.201,3.208,3.204,12.47,11.009
101.0,2043748.953,-1.601,1.6,2.7,4.2,3.202,3.202,12.465,10.992
103.0,2087882.999,-1.6,1.6,2.7,4.201,3.208,3.207,12.47,11.033
105.0,2131906.736,-1.6,1.6,2.7,4.201,3.208,3.205,12.467,11.018
107.0,2176123.575,-1.6,1.6,2.7,4.201,3.206,3.205,12.461,11.023
109.0,2220353.935,-1.601,1.6,2.7,4.201,3.205,3.201,12.455,11.0
111.0,2264952.001,-1.601,1.6,2.7,4.201,3.2,3.194,12.437,10.949
113.0,2310217.611,-1.6,1.6,2.7,4.201,3.192,3.19,12.427,10.925
115.0,2348263.029,-1.6,1.6,2.7,4.2,3.185,3.185,12.405,10.901
117.0,2393989.482,-1.6,1.6,2.7,4.2,3.186,3.183,12.409,10.893
119.0,2439642.556,-1.6,1.6,2.7,4.201,3.183,3.18,12.396,10.876
121.0,2485399.22,-1.6,1.6,2.7,4.2,3.181,3.177,12.391,10.858
123.0,2531064.561,-1.601,1.6,2.7,4.2,3.177,3.175,12.379,10.853
125.0,2576582.033,-1.6,1.6,2.7,4.201,3.179,3.176,12.383,10.863
127.0,2622375.907,-1.6,1.6,2.7,4.201,3.174,3.172,12.369,10.84
129.0,2668191.938,-1.601,1.6,2.7,4.201,3.174,3.171,12.368,10.838
131.0,2714155.96,-1.6,1.6,2.7,4.201,3.17,3.166,12.358,10.808
133.0,2760180.416,-1.6,1.6,2.7,4.201,3.167,3.163,12.349,10.794
135.0,2806584.782,-1.6,1.6,2.7,4.201,3.163,3.157,12.335,10.763
137.0,2852992.004,-1.601,1.6,2.7,4.201,3.159,3.156,12.323,10.757
139.0,2898946.189,-1.601,1.6,2.7,4.201,3.161,3.16,12.326,10.792
141.0,2944705.123,-1.6,1.6,2.7,4.201,3.159,3.156,12.317,10.769
143.0,2990449.12,-1.601,1.6,2.7,4.201,3.157,3.155,12.311,10.763
145.0,3036188.966,-1.601,1.6,2.7,4.201,3.155,3.153,12.303,10.754
147.0,3081763.148,-1.601,1.6,2.7,4.201,3.155,3.151,12.297,10.746
149.0,3128030.323,-1.6,1.6,2.7,4.201,3.148,3.144,12.288,10.704
151.0,3174679.347,-1.6,1.6,2.7,4.201,3.144,3.142,12.277,10.688
153.0,3221318.538,-1.6,1.6,2.7,4.201,3.14,3.138,12.265,10.667
155.0,3268265.38,-1.601,1.6,2.7,4.201,3.137,3.135,12.257,10.655
157.0,3306822.362,-1.6,1.6,2.7,4.2,2.545,2.545,9.771,8.46
159.0,3353947.868,-1.6,1.6,2.7,4.201,3.135,3.131,12.251,10.637
161.0,3401072.796,-1.601,1.601,2.7,4.201,3.131,3.13,12.237,10.635
163.0,3447927.552,-1.6,1.6,2.7,4.201,3.131,3.128,12.235,10.627
165.0,3494898.147,-1.601,1.6,2.7,4.201,3.128,3.126,12.228,10.618
167.0,3541872.487,-1.6,1.6,2.7,4.201,3.124,3.121,12.211,10.597
169.0,3584555.857,-1.6,1.6,2.7,4.201,3.121,2.758,12.201,9.607
171.0,3621270.67,-1.601,1.6,2.678,4.201,2.747,2.743,10.809,9.551
173.0,3657659.804,-1.6,1.6,2.7,4.201,2.736,2.724,10.765,9.48
175.0,3686289.224,-1.601,1.6,2.664,4.2,2.154,2.153,8.321,7.345
177.0,3723055.099,-1.6,1.6,2.7,4.201,2.738,2.726,10.773,9.48
179.0,3759778.685,-1.601,1.6,2.7,4.201,2.727,2.717,10.738,9.443
181.0,3796669.876,-1.6,1.6,2.7,4.201,2.725,2.718,10.728,9.45
183.0,3833394.987,-1.6,1.6,2.647,4.201,2.716,2.709,10.695,9.413
185.0,3870035.99,-1.6,1.6,2.7,4.201,2.717,2.715,10.7,9.435
187.0,3906733.001,-1.601,1.6,2.7,4.201,2.711,2.709,10.676,9.408
189.0,3943455.953,-1.6,1.6,2.7,4.201,2.709,2.703,10.67,9.389
191.0,3972031.813,-1.6,1.6,2.7,4.201,2.72,2.7,10.717,9.375
193.0,4000683.016,-1.6,1.6,2.7,4.201,2.711,2.702,10.691,9.383
195.0,4037407.084,-1.6,1.6,2.7,4.201,2.703,2.701,10.648,9.378
197.0,4074066.002,-1.601,1.6,2.7,4.201,2.703,2.702,10.649,9.374
199.0,4110767.101,-1.601,1.6,2.7,4.201,2.703,2.702,10.651,9.373
201.0,4147697.594,-1.6,1.6,2.7,4.201,2.698,2.711,10.635,9.406
202.0,4165385.621,-1.6,1.6,2.858,4.201,2.718,2.558,10.702,8.975

File: UL-PUR_N20-EX2_18650_NCA_23C_0-100_0.5-0.5C_b_cycle_data.csv
Cycle_Index,Test_Time (s),Min_Current (A),Max_Current (A),Min_Voltage (V),Max_Voltage (V),Charge_Capacity (Ah),Discharge_Capacity (Ah),Charge_Energy (Wh),Discharge_Energy (Wh)
1.0,19702.687,-1.603,1.597,2.697,4.2,1.907,3.362,7.693,11.767
4.0,88778.496,-1.603,1.597,2.697,4.2,3.386,3.349,13.085,11.711
7.0,157806.878,-1.603,1.597,2.697,4.2,3.387,3.345,13.076,11.687
10.0,227350.78,-1.603,1.597,2.697,4.2,3.384,3.347,13.068,11.692
13.0,297059.899,-1.603,1.597,2.697,4.2,3.383,3.342,13.061,11.658
16.0,367285.874,-1.603,1.598,2.697,4.2,3.378,3.338,13.049,11.636
19.0,438520.364,-1.603,1.597,2.697,4.2,3.371,3.332,13.041,11.595
22.0,508350.238,-1.603,1.597,2.697,4.2,3.37,3.33,13.031,11.583
25.0,571144.307,-1.603,1.598,2.697,4.2,3.368,3.326,13.025,11.569
28.0,634598.582,-1.603,1.597,2.697,4.2,3.361,3.322,13.011,11.543
31.0,698416.961,-1.603,1.597,2.697,4.2,3.355,3.315,12.992,11.496
34.0,762387.56,-1.603,1.597,2.697,4.2,3.356,3.308,12.991,11.452
37.0,826673.629,-1.603,1.597,2.697,4.2,3.351,3.311,12.983,11.478
40.0,891762.755,-1.603,1.597,2.697,4.2,3.346,3.305,12.969,11.444
43.0,957163.177,-1.603,1.597,2.697,4.2,3.339,3.297,12.958,11.4
46.0,1022137.313,-1.603,1.597,2.697,4.2,3.347,3.293,12.967,11.379
49.0,1087453.776,-1.603,1.597,2.697,4.2,3.34,3.297,12.952,11.401
52.0,1153189.419,-1.603,1.597,2.697,4.2,3.337,3.29,12.948,11.363
55.0,1218991.133,-1.603,1.597,2.697,4.2,3.329,3.284,12.925,11.328
58.0,1284704.355,-1.603,1.597,2.697,4.2,3.328,3.277,12.917,11.283
61.0,1350818.401,-1.603,1.597,2.697,4.2,3.325,3.28,12.907,11.311
64.0,1417407.536,-1.603,1.597,2.697,4.2,3.319,3.274,12.898,11.268
67.0,1484322.516,-1.603,1.597,2.697,4.2,3.314,3.268,12.883,11.237
70.0,1551743.221,-1.603,1.597,2.697,4.2,3.312,3.256,12.886,11.182
73.0,1619466.946,-1.603,1.597,2.697,4.2,3.31,3.256,12.872,11.19
76.0,1687643.111,-1.603,1.597,2.697,4.2,3.304,3.256,12.858,11.174
79.0,1756118.99,-1.603,1.597,2.697,4.2,3.297,3.249,12.841,11.137
82.0,1824865.743,-1.603,1.597,2.697,4.2,3.296,3.249,12.846,11.129
85.0,1893618.797,-1.603,1.597,2.697,4.2,3.291,3.242,12.821,11.094
88.0,1962480.798,-1.603,1.597,2.697,4.2,3.287,3.239,12.81,11.082
91.0,2031903.689,-1.603,1.597,2.697,4.2,3.281,3.236,12.792,11.057
94.0,2101689.231,-1.637,1.597,2.697,4.2,3.277,3.232,12.788,11.035
97.0,2171564.663,-1.604,1.598,2.697,4.2,3.276,3.231,12.783,11.029
100.0,2241110.726,-1.603,1.597,2.697,4.2,3.276,3.227,12.774,11.011
103.0,2311297.779,-1.603,1.597,2.697,4.2,3.271,3.224,12.764,10.995
106.0,2381958.077,-1.603,1.597,2.697,4.2,3.265,3.218,12.748,10.963
109.0,2452774.747,-1.603,1.597,2.697,4.2,3.261,3.216,12.74,10.959
112.0,2523794.283,-1.603,1.597,2.697,4.2,3.252,3.208,12.714,10.912
115.0,2594924.22,-1.603,1.597,2.697,4.2,3.251,3.203,12.704,10.889
118.0,2666099.58,-1.603,1.598,2.697,4.2,3.249,3.203,12.701,10.891
121.0,2737978.107,-1.603,1.597,2.697,4.2,3.245,3.197,12.692,10.86
124.0,2810528.512,-1.603,1.597,2.697,4.2,3.238,3.193,12.673,10.828
127.0,2883731.841,-1.604,1.597,2.697,4.2,3.232,3.185,12.658,10.789
130.0,2956968.633,-1.604,1.597,2.697,4.2,3.223,3.179,12.631,10.753
133.0,3030348.409,-1.603,1.598,2.697,4.2,3.224,3.169,12.625,10.708
136.0,3104521.451,-1.603,1.597,2.697,4.2,3.214,3.163,12.602,10.683
139.0,3178558.98,-1.603,1.597,2.697,4.2,3.213,3.162,12.597,10.68
142.0,3252903.082,-1.603,1.597,2.697,4.2,3.208,3.156,12.58,10.654
145.0,3327755.032,-1.603,1.597,2.697,4.2,3.206,3.156,12.572,10.652
148.0,3402638.334,-1.603,1.597,2.697,4.2,3.203,3.153,12.568,10.643
151.0,3478035.192,-1.603,1.598,2.697,4.2,3.21,3.148,12.601,10.624
154.0,3553674.887,-1.603,1.597,2.697,4.2,3.208,3.139,12.583,10.577
157.0,3629923.317,-1.603,1.597,2.697,4.2,3.216,3.136,12.639,10.572
160.0,3706712.3,-1.603,1.597,2.697,4.2,3.209,3.129,12.602,10.524
163.0,3782680.636,-1.603,1.597,2.697,4.2,3.21,3.131,12.599,10.558
166.0,3858594.845,-1.603,1.598,2.697,4.2,3.187,3.135,12.504,10.565
169.0,3934506.806,-1.603,1.598,2.697,4.2,3.182,3.13,12.497,10.54
172.0,4011039.658,-1.603,1.597,2.697,4.2,3.18,3.123,12.494,10.498
175.0,4087657.351,-1.603,1.597,2.697,4.2,3.174,3.118,12.48,10.48
178.0,4164643.762,-1.603,1.597,2.697,4.2,3.158,3.111,12.424,10.435
181.0,4241002.075,-1.603,1.597,2.697,4.2,3.153,3.108,12.398,10.434
184.0,4317572.275,-1.609,1.598,2.697,4.2,3.153,3.106,12.398,10.416
187.0,4394746.427,-1.603,1.598,2.697,4.2,3.148,3.102,12.38,10.407
190.0,4471438.406,-1.603,1.597,2.697,4.2,3.142,3.089,12.358,10.356
193.0,4549097.261,-1.603,1.597,2.697,4.2,3.133,3.087,12.334,10.327
196.0,4627475.553,-1.603,1.597,2.697,4.2,3.13,3.084,12.325,10.317
199.0,4706269.877,-1.603,1.598,2.697,4.2,3.119,3.077,12.298,10.283
202.0,4786031.113,-1.603,1.598,2.697,4.2,3.116,3.074,12.298,10.269
205.0,4865491.881,-1.603,1.597,2.697,4.2,3.117,3.072,12.293,10.255
208.0,4944463.621,-1.603,1.597,2.697,4.2,3.115,3.069,12.27,10.256
211.0,5024071.336,-1.603,1.597,2.697,4.2,3.109,3.06,12.262,10.201
214.0,5104312.701,-1.603,1.598,2.697,4.2,3.106,3.056,12.251,10.181
217.0,5184265.703,-1.618,1.597,2.697,4.2,3.1,3.057,12.224,10.2
220.0,5264424.408,-1.603,1.597,2.697,4.2,3.098,3.047,12.222,10.143
223.0,5345544.896,-1.603,1.597,2.697,4.2,3.091,3.043,12.199,10.134
226.0,5426728.321,-1.603,1.597,2.697,4.2,3.085,3.04,12.179,10.113
229.0,5508073.058,-1.603,1.597,2.697,4.2,3.079,3.031,12.158,10.086
232.0,5589133.249,-1.603,1.598,2.697,4.2,3.07,3.025,12.128,10.053
235.0,5670655.698,-1.603,1.597,2.697,4.2,3.07,3.024,12.134,10.045
238.0,5751860.412,-1.603,1.598,2.697,4.2,3.074,3.021,12.14,10.042
241.0,5832038.207,-1.603,1.598,2.697,4.2,3.071,3.026,12.115,10.079
244.0,5913926.162,-1.603,1.598,2.697,4.2,3.055,3.009,12.081,9.981
247.0,5997138.387,-1.603,1.597,2.697,4.2,3.051,3.005,12.075,9.957
250.0,6080046.694,-1.604,1.597,2.697,4.2,3.047,2.996,12.058,9.927
253.0,6163091.92,-1.609,1.597,2.697,4.2,3.05,2.998,12.071,9.951
256.0,6245624.288,-1.603,1.597,2.697,4.2,3.036,2.989,12.013,9.904
259.0,6328388.737,-1.603,1.597,2.697,4.2,3.032,2.985,12.002,9.89
262.0,6411556.648,-1.603,1.597,2.697,4.2,3.027,2.975,11.986,9.85
265.0,6495312.62,-1.603,1.597,2.697,4.2,3.027,2.979,11.994,9.86
268.0,6578211.593,-1.603,1.597,2.697,4.2,3.022,2.973,11.96,9.847
271.0,6661303.258,-1.603,1.597,2.697,4.2,3.02,2.974,11.958,9.861
274.0,6743840.282,-1.603,1.598,2.697,4.2,3.008,2.961,11.914,9.799
277.0,6827297.749,-1.633,1.598,2.697,4.2,3.004,2.958,11.901,9.781
280.0,6910588.658,-1.603,1.597,2.697,4.2,2.998,2.952,11.878,9.757
283.0,6993630.83,-1.603,1.598,2.697,4.2,2.988,2.944,11.841,9.72
286.0,7076619.051,-1.603,1.597,2.697,4.2,2.984,2.941,11.826,9.71
289.0,7159585.212,-1.603,1.597,2.697,4.2,2.977,2.935,11.802,9.689
292.0,7229147.994,-1.603,1.598,2.7,4.2,2.532,2.509,10.105,8.521
295.0,7288843.108,-1.647,1.597,2.697,4.2,2.518,2.483,10.05,8.427
298.0,7348060.581,-1.603,1.598,2.7,4.2,2.486,2.469,9.924,8.367
301.0,7407833.731,-1.603,1.597,2.7,4.2,2.503,2.463,9.991,8.359
304.0,7467860.162,-1.603,1.597,2.7,4.2,2.488,2.463,9.934,8.354
307.0,7527829.681,-1.603,1.597,2.7,4.2,2.476,2.449,9.892,8.302
310.0,7586746.212,-1.603,1.597,2.7,4.2,2.476,2.439,9.885,8.272
313.0,7646438.146,-1.603,1.597,2.7,4.2,2.48,2.447,9.903,8.296
316.0,7706679.073,-1.603,1.598,2.7,4.2,2.472,2.438,9.883,8.257
319.0,7767564.895,-1.603,1.597,2.7,4.2,2.506,2.463,10.004,8.366
320.0,7771261.82,1.596,1.597,3.431,4.153,1.64,0.0,6.369,0.0

File: UL-PUR_N20-NA5_18650_NCA_23C_0-100_0.5-0.5C_e_cycle_data.csv
Cycle_Index,Test_Time (s),Min_Current (A),Max_Current (A),Min_Voltage (V),Max_Voltage (V),Charge_Capacity (Ah),Discharge_Capacity (Ah),Charge_Energy (Wh),Discharge_Energy (Wh)
1.0,9319.544,-1.6,1.6,2.7,4.263,0.05,3.366,0.187,11.831
3.0,47683.697,-1.6,1.6,2.7,4.2,3.349,3.342,12.891,11.755
5.0,86156.998,-1.6,1.6,2.7,4.2,3.343,3.339,12.871,11.74
7.0,124738.287,-1.6,1.6,2.7,4.2,3.34,3.337,12.864,11.725
9.0,163410.974,-1.6,1.6,2.7,4.2,3.339,3.336,12.859,11.713
11.0,202249.006,-1.6,1.6,2.7,4.2,3.338,3.335,12.86,11.706
13.0,241180.641,-1.6,1.6,2.7,4.2,3.336,3.334,12.857,11.697
15.0,280231.327,-1.6,1.6,2.7,4.2,3.335,3.332,12.853,11.681
17.0,319442.391,-1.6,1.6,2.7,4.2,3.334,3.331,12.853,11.673
19.0,358806.029,-1.6,1.6,2.7,4.2,3.332,3.328,12.848,11.651
21.0,398272.792,-1.6,1.6,2.7,4.2,3.33,3.327,12.844,11.645
23.0,437865.628,-1.6,1.6,2.7,4.2,3.328,3.326,12.84,11.635
25.0,472079.077,-1.6,1.6,2.7,4.2,2.831,2.832,10.755,9.717
27.0,506448.591,-1.6,1.6,2.7,4.2,3.325,3.322,12.838,11.603
29.0,546411.927,-1.6,1.6,2.7,4.2,3.323,3.32,12.831,11.595
31.0,586414.175,-1.6,1.6,2.7,4.2,3.322,3.32,12.829,11.59
33.0,626597.982,-1.6,1.6,2.7,4.2,3.32,3.317,12.822,11.569
35.0,666848.607,-1.6,1.6,2.7,4.2,3.319,3.316,12.819,11.563
37.0,707408.801,-1.6,1.6,2.7,4.2,3.315,3.313,12.813,11.539
39.0,748054.596,-1.6,1.6,2.7,4.2,3.313,3.311,12.808,11.529
41.0,788893.221,-1.6,1.6,2.7,4.2,3.311,3.308,12.801,11.504
43.0,829859.849,-1.6,1.6,2.7,4.2,3.309,3.306,12.799,11.495
45.0,870951.717,-1.6,1.6,2.7,4.2,3.306,3.304,12.79,11.48
47.0,912273.769,-1.6,1.6,2.7,4.2,3.303,3.3,12.784,11.459
49.0,953644.145,-1.6,1.6,2.7,4.2,3.302,3.299,12.78,11.451
51.0,988870.997,-1.6,1.6,2.7,4.2,2.767,2.767,10.536,9.409
53.0,1030795.174,-1.6,1.6,2.7,4.2,3.297,3.292,12.766,11.402
55.0,1072948.619,-1.6,1.6,2.7,4.2,3.294,3.291,12.762,11.397
57.0,1115366.97,-1.6,1.6,2.7,4.2,3.292,3.287,12.755,11.369
59.0,1157650.757,-1.601,1.6,2.7,4.2,3.292,3.289,12.751,11.384
61.0,1200236.843,-1.6,1.6,2.7,4.2,3.288,3.285,12.743,11.36
63.0,1242892.712,-1.6,1.6,2.7,4.2,3.286,3.282,12.738,11.339
65.0,1285731.763,-1.6,1.6,2.7,4.2,3.284,3.282,12.737,11.344
67.0,1328686.762,-1.6,1.6,2.7,4.2,3.282,3.278,12.725,11.315
69.0,1372142.903,-1.6,1.6,2.7,4.2,3.277,3.273,12.715,11.277
71.0,1415772.958,-1.6,1.6,2.7,4.2,3.274,3.27,12.709,11.268
73.0,1459512.763,-1.6,1.6,2.7,4.2,3.27,3.267,12.699,11.254
75.0,1503318.055,-1.6,1.6,2.7,4.2,3.267,3.263,12.684,11.232
77.0,1546932.648,-1.6,1.6,2.7,4.2,3.267,3.264,12.683,11.254
79.0,1590669.676,-1.6,1.6,2.7,4.2,3.264,3.26,12.674,11.228
81.0,1634638.995,-1.6,1.6,2.7,4.2,3.26,3.257,12.662,11.206
83.0,1678824.038,-1.6,1.6,2.7,4.2,3.256,3.252,12.655,11.176
85.0,1715780.517,-1.6,1.6,2.7,4.2,2.669,2.667,10.199,8.965
87.0,1760750.462,-1.6,1.6,2.7,4.2,3.249,3.245,12.64,11.134
89.0,1805936.642,-1.6,1.6,2.7,4.2,3.245,3.24,12.628,11.107
91.0,1851182.63,-1.6,1.6,2.7,4.2,3.242,3.239,12.613,11.103
93.0,1896814.618,-1.6,1.6,2.7,4.2,3.239,3.235,12.612,11.078
95.0,1942380.373,-1.6,1.601,2.7,4.2,3.235,3.232,12.601,11.064
97.0,1988352.401,-1.6,1.6,2.7,4.2,3.232,3.227,12.591,11.03
99.0,2034512.272,-1.601,1.6,2.7,4.2,3.228,3.228,12.588,11.039
101.0,2071680.999,-1.6,1.6,2.7,4.2,3.232,3.23,12.585,11.059
103.0,2117350.819,-1.6,1.6,2.7,4.201,3.228,3.225,12.575,11.029
105.0,2163117.357,-1.6,1.6,2.7,4.201,3.228,3.223,12.572,11.023
107.0,2209053.424,-1.6,1.6,2.7,4.201,3.225,3.222,12.567,11.015
109.0,2247289.944,-1.6,1.6,2.7,4.2,3.216,3.213,12.548,10.943
111.0,2285844.471,-1.6,1.601,2.7,4.2,3.212,3.211,12.545,10.93
113.0,2333685.537,-1.6,1.6,2.7,4.2,3.211,3.206,12.542,10.904
115.0,2381722.752,-1.6,1.6,2.7,4.2,3.208,3.204,12.531,10.888
117.0,2429904.636,-1.6,1.6,2.7,4.2,3.204,3.199,12.518,10.862
119.0,2478575.973,-1.6,1.6,2.7,4.2,3.198,3.194,12.508,10.838
121.0,2527481.692,-1.6,1.6,2.7,4.2,3.196,3.193,12.494,10.84
123.0,2576463.816,-1.6,1.601,2.7,4.2,3.19,3.186,12.473,10.802
125.0,2625697.504,-1.6,1.6,2.7,4.201,3.185,3.181,12.456,10.783
127.0,2675379.316,-1.6,1.6,2.7,4.201,3.18,3.176,12.442,10.755
129.0,2725161.703,-1.6,1.6,2.7,4.2,3.174,3.17,12.426,10.727
131.0,2775260.877,-1.6,1.6,2.7,4.2,3.169,3.162,12.407,10.676
133.0,2825577.895,-1.6,1.6,2.7,4.2,3.162,3.158,12.389,10.671
135.0,2875376.081,-1.6,1.6,2.7,4.2,3.162,3.158,12.378,10.692
137.0,2915123.002,-1.6,1.6,2.7,4.2,2.511,2.516,9.648,8.33
139.0,2964974.429,-1.6,1.6,2.7,4.2,3.154,3.148,12.353,10.641
141.0,3014830.782,-1.6,1.6,2.7,4.201,3.149,3.145,12.338,10.63
143.0,3064794.607,-1.6,1.6,2.7,4.2,3.143,3.137,12.319,10.595
145.0,3115506.998,-1.6,1.6,2.7,4.2,3.133,3.129,12.29,10.544
147.0,3166205.157,-1.6,1.6,2.7,4.2,3.127,3.123,12.273,10.516
149.0,3216989.904,-1.6,1.6,2.7,4.2,3.121,3.116,12.249,10.487
151.0,3268210.516,-1.6,1.6,2.7,4.2,3.117,3.114,12.243,10.475
153.0,3319099.235,-1.6,1.6,2.7,4.2,3.111,3.106,12.22,10.443
155.0,3370044.753,-1.601,1.6,2.7,4.2,3.107,3.104,12.204,10.446
157.0,3420873.663,-1.6,1.6,2.7,4.2,3.102,3.098,12.184,10.412
159.0,3471813.833,-1.6,1.6,2.7,4.2,3.096,3.092,12.157,10.389
161.0,3522832.826,-1.6,1.6,2.7,4.2,3.092,3.087,12.151,10.377
163.0,3565731.54,-1.6,1.6,2.7,4.2,3.018,2.704,11.877,9.324
165.0,3604381.91,-1.6,1.6,2.7,4.2,2.688,2.687,10.639,9.263
167.0,3643173.025,-1.6,1.6,2.7,4.2,2.687,2.682,10.635,9.243
169.0,3681677.561,-1.6,1.6,2.7,4.201,2.675,2.667,10.589,9.193
171.0,3720171.508,-1.6,1.6,2.7,4.2,2.665,2.66,10.553,9.166
173.0,3758712.133,-1.6,1.6,2.7,4.2,2.671,2.663,10.576,9.176
175.0,3797264.119,-1.6,1.6,2.7,4.2,2.663,2.661,10.547,9.164
177.0,3826140.375,-1.6,1.6,2.7,4.2,1.99,2.014,7.716,6.792
179.0,3864965.666,-1.6,1.6,2.7,4.2,2.665,2.66,10.551,9.161
181.0,3903630.556,-1.6,1.6,2.7,4.2,2.657,2.658,10.525,9.151
183.0,3942172.157,-1.6,1.6,2.7,4.2,2.665,2.651,10.552,9.134
185.0,3971008.752,-1.62,1.6,2.694,4.2,1.975,2.001,7.661,6.739
187.0,4009713.749,-1.6,1.6,2.7,4.2,2.65,2.648,10.502,9.115
189.0,4048108.615,-1.6,1.6,2.7,4.2,2.649,2.641,10.493,9.086
191.0,4086509.93,-1.6,1.6,2.7,4.2,2.648,2.647,10.491,9.107
193.0,4124921.094,-1.6,1.6,2.7,4.203,2.653,2.669,10.509,9.199
195.0,4163265.108,-1.6,1.6,2.7,4.201,2.672,2.669,10.573,9.197
197.0,4201706.722,-1.6,1.6,2.7,4.201,2.672,2.677,10.576,9.227
199.0,4230793.109,-1.6,1.6,2.7,4.201,2.704,2.656,10.702,9.16
201.0,4269504.361,-1.6,1.601,2.7,4.2,2.579,2.561,10.258,8.764
203.0,4308628.556,-1.6,1.6,2.7,4.2,2.613,2.622,10.373,9.007
205.0,4347052.984,-1.601,1.6,2.7,4.2,2.634,2.633,10.443,9.05
207.0,4385423.78,-1.6,1.6,2.7,4.2,2.612,2.605,10.371,8.938
209.0,4413871.471,-1.6,1.6,2.7,4.2,1.91,1.934,7.426,6.489
211.0,4452789.539,-1.6,1.6,2.7,4.2,2.593,2.589,10.307,8.872
213.0,4491345.437,-1.6,1.6,2.7,4.2,2.606,2.603,10.348,8.935
215.0,4529918.996,-1.6,1.6,2.7,4.2,2.615,2.612,10.379,8.972
217.0,4568609.798,-1.6,1.6,2.7,4.2,2.622,2.622,10.408,9.005
219.0,4607219.724,-1.601,1.601,2.7,4.2,2.616,2.608,10.383,8.954
221.0,4645763.877,-1.6,1.6,2.7,4.2,2.589,2.589,10.292,8.876
223.0,4681359.061,-1.6,1.6,3.427,4.2,2.594,1.244,10.31,4.556