Folder: ML-project/Li-ion_Batteries (part 9)

File: UL-PUR_R10-OV5_18650_NCA_23C_2.5-96.5_0.5-0.5C_e_cycle_data.csv
Cycle_Index,Test_Time (s),Min_Current (A),Max_Current (A),Min_Voltage (V),Max_Voltage (V),Charge_Capacity (Ah),Discharge_Capacity (Ah),Charge_Energy (Wh),Discharge_Energy (Wh)
1.0,15489.921,-1.134,1.133,2.9,4.0,0.831,2.715,3.278,9.468
3.0,59266.851,-1.134,1.133,2.9,4.0,2.71,2.71,10.142,9.448
5.0,102963.385,-1.134,1.134,2.9,4.0,2.709,2.709,10.136,9.447
7.0,146527.446,-1.134,1.133,2.9,4.0,2.71,2.71,10.137,9.457
9.0,190198.451,-1.134,1.133,2.9,4.0,2.707,2.708,10.13,9.447
11.0,233855.466,-1.134,1.134,2.9,4.0,2.707,2.708,10.128,9.447
13.0,277402.228,-1.134,1.133,2.9,4.0,2.706,2.706,10.124,9.44
15.0,320966.547,-1.134,1.133,2.9,4.0,2.705,2.705,10.121,9.439
17.0,364608.206,-1.134,1.133,2.9,4.0,2.703,2.704,10.116,9.428
19.0,408632.344,-1.134,1.133,2.9,4.0,2.699,2.701,10.11,9.413
21.0,452466.504,-1.134,1.133,2.9,4.0,2.7,2.7,10.106,9.412
23.0,496010.866,-1.134,1.133,2.9,4.0,2.702,2.702,10.108,9.422
25.0,539553.242,-1.134,1.134,2.9,4.0,2.7,2.701,10.104,9.422
27.0,583096.348,-1.134,1.134,2.9,4.001,2.7,2.7,10.101,9.417
29.0,626591.405,-1.134,1.133,2.9,4.001,2.699,2.699,10.098,9.415
31.0,669939.987,-1.134,1.133,2.9,4.0,2.699,2.7,10.097,9.42
33.0,713796.746,-1.134,1.134,2.9,4.0,2.695,2.695,10.086,9.394
35.0,757688.058,-1.134,1.134,2.9,4.0,2.695,2.695,10.087,9.391
37.0,801499.788,-1.134,1.134,2.9,4.001,2.693,2.694,10.082,9.386
39.0,845308.428,-1.134,1.133,2.9,4.0,2.692,2.692,10.078,9.379
41.0,889079.047,-1.134,1.134,2.9,4.0,2.691,2.691,10.077,9.376
43.0,932894.725,-1.134,1.133,2.9,4.0,2.69,2.69,10.073,9.372
45.0,976694.626,-1.134,1.133,2.9,4.0,2.689,2.691,10.068,9.376
47.0,1020456.672,-1.134,1.133,2.9,4.0,2.69,2.69,10.068,9.368
49.0,1059802.784,-1.6,1.6,2.9,4.0,2.694,2.69,10.164,9.258
51.0,1094696.03,-1.6,1.6,2.9,4.001,2.689,2.689,10.152,9.261
53.0,1129464.528,-1.6,1.6,2.9,4.0,2.688,2.688,10.15,9.25
55.0,1162757.268,-1.6,1.6,2.9,4.0,2.687,2.495,10.149,8.689
57.0,1193291.845,-1.6,1.6,2.9,4.0,2.496,2.478,9.471,8.638
59.0,1223744.392,-1.6,1.6,2.9,4.001,2.481,2.482,9.42,8.649
61.0,1254240.142,-1.6,1.6,2.9,4.0,2.488,2.482,9.446,8.644
63.0,1284823.687,-1.6,1.6,2.9,4.0,2.49,2.491,9.453,8.674
65.0,1315338.962,-1.6,1.6,2.9,4.0,2.481,2.464,9.421,8.585
67.0,1345912.222,-1.6,1.6,2.9,4.0,2.484,2.471,9.433,8.603
69.0,1376383.066,-1.6,1.6,2.9,4.001,2.484,2.47,9.433,8.603
71.0,1406899.643,-1.6,1.6,2.9,4.0,2.477,2.463,9.407,8.574
73.0,1437439.843,-1.6,1.6,2.9,4.0,2.469,2.475,9.381,8.614
75.0,1467951.322,-1.6,1.6,2.9,4.0,2.469,2.464,9.38,8.579
77.0,1492595.285,-1.6,1.6,2.9,4.0,2.475,2.46,9.404,8.558
79.0,1523124.766,-1.6,1.6,2.9,4.0,2.47,2.46,9.384,8.561
81.0,1553716.812,-1.6,1.6,2.9,4.0,2.474,2.459,9.401,8.56
83.0,1584268.528,-1.6,1.6,2.9,4.0,2.463,2.456,9.363,8.545
85.0,1614854.752,-1.6,1.6,2.9,4.0,2.468,2.465,9.378,8.574
87.0,1645463.637,-1.6,1.6,2.9,4.0,2.459,2.467,9.348,8.578
89.0,1676065.933,-1.6,1.6,2.9,4.0,2.461,2.452,9.355,8.531
91.0,1706715.262,-1.6,1.6,2.9,4.0,2.458,2.46,9.346,8.556
93.0,1737359.721,-1.6,1.6,2.9,4.001,2.466,2.477,9.371,8.619
95.0,1767813.01,-1.6,1.6,2.9,4.001,2.479,2.478,9.415,8.621
97.0,1798433.93,-1.6,1.6,2.9,4.001,2.477,2.475,9.408,8.611
99.0,1829053.606,-1.6,1.6,2.9,4.001,2.479,2.471,9.413,8.598
101.0,1859786.403,-1.6,1.6,2.9,4.004,2.461,2.399,9.36,8.33
103.0,1890457.853,-1.6,1.6,2.9,4.0,2.386,2.379,9.104,8.256
105.0,1921103.247,-1.6,1.6,2.9,4.0,2.425,2.433,9.233,8.454
107.0,1951752.894,-1.6,1.6,2.9,4.0,2.439,2.439,9.282,8.478
109.0,1982403.64,-1.6,1.6,2.9,4.0,2.437,2.426,9.275,8.43
111.0,2013104.494,-1.6,1.6,2.9,4.0,2.424,2.427,9.232,8.435
113.0,2043779.361,-1.6,1.6,2.9,4.0,2.417,2.413,9.209,8.381
115.0,2074517.791,-1.6,1.6,2.9,4.0,2.41,2.418,9.185,8.404
117.0,2105200.806,-1.6,1.6,2.9,4.0,2.427,2.422,9.242,8.413
119.0,2135852.341,-1.6,1.6,2.9,4.0,2.42,2.432,9.219,8.449
121.0,2166554.898,-1.6,1.6,2.9,4.0,2.431,2.419,9.253,8.403
123.0,2197279.868,-1.6,1.6,2.9,4.0,2.431,2.421,9.256,8.407
125.0,2227983.207,-1.6,1.6,2.9,4.0,2.418,2.418,9.211,8.399
127.0,2258742.269,-1.6,1.6,2.9,4.0,2.406,2.407,9.17,8.358
129.0,2282995.443,-1.6,1.6,2.9,4.0,1.839,1.844,6.903,6.271
131.0,2313899.06,-1.6,1.6,2.9,4.0,2.411,2.389,9.191,8.291
133.0,2344756.077,-1.6,1.6,2.9,4.0,2.403,2.399,9.163,8.324
135.0,2375542.315,-1.6,1.6,2.9,4.0,2.401,2.396,9.154,8.314
137.0,2406368.917,-1.6,1.6,2.9,4.0,2.39,2.398,9.12,8.32
139.0,2430670.157,-1.6,1.6,2.9,4.0,2.404,2.397,9.17,8.315
141.0,2461487.794,-1.6,1.6,2.9,4.0,2.397,2.398,9.141,8.317
143.0,2485735.872,-1.6,1.6,2.899,4.0,1.814,1.817,6.811,6.171
145.0,2516691.849,-1.6,1.6,2.9,4.0,2.398,2.4,9.145,8.324
147.0,2547525.871,-1.6,1.6,2.9,4.0,2.398,2.389,9.146,8.287
149.0,2578367.85,-1.6,1.6,2.9,4.0,2.384,2.383,9.099,8.263
151.0,2609114.765,-1.6,1.6,2.9,4.0,2.37,2.378,9.048,8.245
153.0,2640013.795,-1.6,1.6,2.9,4.0,2.378,2.375,9.078,8.235
155.0,2670908.315,-1.603,1.6,2.897,4.0,2.375,2.369,9.067,8.213
157.0,2701802.309,-1.6,1.6,2.9,4.0,2.369,2.362,9.049,8.184
159.0,2732752.776,-1.6,1.6,2.9,4.0,2.374,2.369,9.063,8.211
161.0,2763671.737,-1.6,1.6,2.9,4.0,2.368,2.37,9.046,8.214
163.0,2787883.437,-1.6,1.6,2.9,4.0,2.377,2.36,9.079,8.175
165.0,2818823.019,-1.6,1.6,2.9,4.0,2.366,2.366,9.039,8.2
167.0,2849781.36,-1.6,1.6,2.9,4.0,2.365,2.362,9.035,8.187
169.0,2880814.33,-1.6,1.6,2.9,4.0,2.36,2.377,9.017,8.241
171.0,2911682.589,-1.6,1.6,2.9,4.0,2.381,2.359,9.088,8.176
173.0,2942626.287,-1.6,1.6,2.9,4.0,2.358,2.364,9.01,8.187
175.0,2973564.969,-1.6,1.6,2.9,4.0,2.354,2.357,8.995,8.167
177.0,3004554.36,-1.6,1.6,2.9,4.0,2.365,2.357,9.033,8.166
179.0,3028672.007,-1.6,1.6,2.9,4.0,2.367,2.358,9.047,8.168
181.0,3059570.918,-1.6,1.6,2.9,4.0,2.342,2.348,8.955,8.131
183.0,3090606.54,-1.6,1.6,2.9,4.0,2.355,2.347,8.996,8.127
185.0,3121582.4,-1.6,1.6,2.9,4.0,2.349,2.341,8.98,8.107
187.0,3152578.644,-1.6,1.6,2.9,4.0,2.345,2.343,8.968,8.115
189.0,3183615.265,-1.6,1.6,2.9,4.0,2.345,2.346,8.965,8.124
191.0,3214605.252,-1.6,1.6,2.9,4.0,2.352,2.35,8.988,8.141
193.0,3245601.024,-1.6,1.6,2.9,4.0,2.348,2.354,8.975,8.155
195.0,3276580.219,-1.6,1.6,2.898,4.0,2.355,2.357,8.998,8.166
197.0,3307568.662,-1.6,1.6,2.9,4.0,2.347,2.343,8.973,8.115
199.0,3338543.844,-1.6,1.6,2.9,4.0,2.344,2.342,8.96,8.112
201.0,3369542.142,-1.6,1.6,2.9,4.0,2.341,2.338,8.952,8.1
203.0,3400517.84,-1.6,1.6,2.9,4.0,2.336,2.333,8.934,8.077
205.0,3431510.55,-1.6,1.6,2.9,4.0,2.34,2.335,8.947,8.085
207.0,3462564.561,-1.6,1.6,2.9,4.0,2.339,2.332,8.945,8.076
209.0,3493575.787,-1.6,1.6,2.9,4.0,2.33,2.331,8.914,8.071
211.0,3524589.415,-1.6,1.6,2.9,4.0,2.334,2.331,8.927,8.07
213.0,3555584.889,-1.6,1.6,2.9,4.0,2.331,2.326,8.919,8.052
215.0,3586634.024,-1.6,1.6,2.9,4.0,2.327,2.329,8.904,8.063
217.0,3610625.707,-1.6,1.6,2.9,4.0,2.34,2.327,8.955,8.053
219.0,3641637.826,-1.6,1.6,2.9,4.0,2.324,2.325,8.895,8.049
221.0,3665486.779,-1.6,1.6,2.9,4.0,1.709,1.726,6.435,5.843
223.0,3689461.34,-1.6,1.6,2.9,4.0,1.718,1.72,6.463,5.822
225.0,3720623.58,-1.6,1.6,2.9,4.0,2.322,2.319,8.886,8.026
227.0,3751734.403,-1.6,1.6,2.9,4.0,2.317,2.32,8.872,8.027
229.0,3782824.038,-1.6,1.6,2.9,4.0,2.32,2.317,8.879,8.019
231.0,3813906.032,-1.6,1.6,2.899,4.0,2.319,2.314,8.876,8.006
233.0,3837658.729,-1.6,1.6,2.9,4.0,1.693,1.703,6.376,5.76
235.0,3868875.673,-1.6,1.6,2.9,4.0,2.31,2.31,8.846,7.994
237.0,3900013.299,-1.6,1.6,2.9,4.0,2.317,2.308,8.869,7.985
239.0,3931116.768,-1.6,1.6,2.9,4.0,2.313,2.302,8.857,7.962
241.0,3962233.546,-1.6,1.6,2.9,4.0,2.313,2.311,8.855,7.995
243.0,3993315.238,-1.6,1.6,2.9,4.0,2.311,2.307,8.845,7.98
245.0,4017230.288,-1.6,1.6,2.9,4.0,2.321,2.307,8.887,7.976
247.0,4048354.854,-1.6,1.6,2.899,4.0,2.306,2.302,8.83,7.963
249.0,4079453.934,-1.6,1.6,2.9,4.003,2.307,2.31,8.833,7.989
251.0,4110576.473,-1.6,1.6,2.9,4.0,2.305,2.299,8.827,7.954
253.0,4141696.68,-1.6,1.6,2.9,4.0,2.3,2.298,8.81,7.949
255.0,4172754.648,-1.6,1.6,2.9,4.0,2.297,2.304,8.798,7.967
257.0,4203866.799,-1.6,1.6,2.9,4.0,2.305,2.303,8.828,7.965
259.0,4234988.805,-1.6,1.6,2.9,4.0,2.301,2.309,8.814,7.988
261.0,4266090.122,-1.6,1.6,2.9,4.0,2.308,2.304,8.837,7.968
263.0,4297068.001,-1.6,1.6,2.9,4.0,2.303,2.294,8.82,7.933
265.0,4328114.354,-1.6,1.6,2.9,4.0,2.294,2.302,8.79,7.963
267.0,4359187.356,-1.6,1.6,2.9,4.0,2.306,2.305,8.828,7.975
268.0,4363714.188,0.896,1.6,3.371,4.0,1.931,0.0,7.33,0.0

File: UL-PUR_R15-EX4_18650_NCA_23C_2.5-96.5_0.5-0.5C_d_cycle_data.csv
Cycle_Index,Test_Time (s),Min_Current (A),Max_Current (A),Min_Voltage (V),Max_Voltage (V),Charge_Capacity (Ah),Discharge_Capacity (Ah),Charge_Energy (Wh),Discharge_Energy (Wh)
1.0,14110.85,-1.133,1.133,2.9,4.0,1.558,2.372,5.893,8.157
5.0,101322.649,-1.133,1.133,2.9,4.0,2.705,2.705,10.123,9.428
9.0,187998.894,-1.134,1.133,2.9,4.0,2.705,2.705,10.121,9.431
13.0,274800.594,-1.133,1.133,2.9,4.0,2.702,2.701,10.109,9.416
17.0,361676.551,-1.133,1.133,2.9,4.0,2.701,2.701,10.108,9.411
21.0,448885.477,-1.133,1.133,2.9,4.0,2.698,2.698,10.1,9.396
25.0,535478.478,-1.133,1.133,2.9,4.0,2.699,2.699,10.1,9.407
29.0,622071.483,-1.133,1.133,2.9,4.001,2.698,2.698,10.095,9.402
33.0,708722.956,-1.133,1.133,2.9,4.0,2.694,2.694,10.084,9.383
37.0,795544.48,-1.133,1.133,2.9,4.0,2.693,2.692,10.079,9.372
41.0,882734.593,-1.133,1.133,2.9,4.0,2.691,2.691,10.074,9.364
45.0,969829.879,-1.134,1.134,2.9,4.0,2.69,2.69,10.073,9.362
49.0,1049360.24,-1.6,1.134,2.9,4.0,2.323,2.326,8.603,7.891
53.0,1118060.248,-1.6,1.6,2.9,4.001,2.688,2.688,10.146,9.248
57.0,1183577.137,-1.6,1.6,2.9,4.001,2.487,2.503,9.439,8.712
61.0,1244453.527,-1.6,1.6,2.9,4.001,2.496,2.494,9.473,8.677
65.0,1305360.949,-1.6,1.6,2.9,4.001,2.488,2.48,9.443,8.63
69.0,1366271.992,-2.512,1.6,2.85,4.001,2.491,2.484,9.456,8.642
73.0,1426987.336,-1.6,1.6,2.9,4.0,2.48,2.478,9.416,8.619
77.0,1487860.568,-1.6,1.6,2.9,4.0,2.477,2.464,9.407,8.571
81.0,1548765.302,-1.6,1.6,2.9,4.001,2.483,2.478,9.426,8.615
85.0,1609678.125,-1.6,1.6,2.9,4.0,2.468,2.467,9.377,8.577
89.0,1670442.823,-1.6,1.6,2.9,4.0,2.464,2.46,9.363,8.553
93.0,1731376.036,-1.6,1.6,2.9,4.001,2.47,2.482,9.382,8.63
97.0,1792127.242,-1.6,1.6,2.9,4.001,2.487,2.486,9.441,8.645
101.0,1852793.57,-1.6,1.6,2.9,4.001,2.48,2.426,9.412,8.424
105.0,1907437.018,-1.6,1.6,2.9,4.0,2.397,2.441,9.14,8.475
109.0,1962383.087,-1.6,1.6,2.9,4.0,2.455,2.455,9.336,8.528
113.0,2017263.715,-1.6,1.6,2.9,4.0,2.444,2.441,9.299,8.477
117.0,2078482.344,-1.6,1.6,2.899,4.001,2.431,2.444,9.258,8.483
121.0,2139490.679,-1.6,1.6,2.899,4.0,2.446,2.449,9.302,8.503
125.0,2200489.765,-1.6,1.6,2.9,4.0,2.444,2.44,9.298,8.471
129.0,2261581.362,-1.6,1.6,2.9,4.0,2.429,2.429,9.247,8.431
133.0,2322579.688,-1.6,1.6,2.9,4.0,2.414,2.41,9.199,8.358
137.0,2377388.969,-1.6,1.6,2.9,4.0,2.422,2.416,9.226,8.381
141.0,2432227.088,-1.6,1.6,2.9,4.0,2.42,2.417,9.217,8.385
145.0,2493509.356,-1.6,1.6,2.9,4.0,2.412,2.411,9.191,8.363
149.0,2554516.453,-1.6,1.6,2.9,4.0,2.414,2.407,9.197,8.347
153.0,2615627.364,-1.6,1.6,2.9,4.0,2.408,2.398,9.179,8.311
157.0,2670439.805,-1.6,1.6,2.9,4.0,2.4,2.395,9.15,8.3
161.0,2725228.916,-1.6,1.6,2.9,4.0,1.827,1.832,6.865,6.217
165.0,2786458.846,-1.6,1.6,2.9,4.0,2.392,2.385,9.124,8.261
169.0,2847628.574,-1.6,1.6,2.9,4.0,2.387,2.392,9.108,8.285
173.0,2908875.054,-1.6,1.6,2.9,4.0,2.407,2.39,9.173,8.288
177.0,2970056.568,-1.6,1.6,2.9,4.0,2.381,2.385,9.087,8.26
181.0,3031233.573,-1.6,1.6,2.9,4.0,2.385,2.385,9.098,8.26
185.0,3092631.1,-1.6,1.6,2.9,4.0,2.398,2.378,9.143,8.236
189.0,3153935.489,-1.6,1.6,2.9,4.0,2.374,2.375,9.063,8.225
193.0,3208740.281,-1.6,1.6,2.9,4.0,2.382,2.383,9.095,8.252
197.0,3270114.707,-1.6,1.6,2.9,4.0,2.39,2.389,9.117,8.275
201.0,3324891.62,-1.6,1.6,2.9,4.0,2.38,2.377,9.084,8.232
205.0,3386278.343,-1.6,1.6,2.898,4.0,2.379,2.371,9.08,8.21
209.0,3447606.869,-1.6,1.6,2.9,4.0,2.37,2.373,9.052,8.218
213.0,3508886.585,-1.6,1.6,2.9,4.0,2.369,2.369,9.044,8.202
217.0,3570147.086,-1.6,1.6,2.9,4.0,2.364,2.362,9.03,8.173
221.0,3631488.208,-1.6,1.6,2.9,4.0,2.369,2.363,9.047,8.178
225.0,3692635.687,-1.6,1.6,2.9,4.0,2.363,2.359,9.026,8.163
229.0,3753995.288,-1.6,1.6,2.9,4.0,2.36,2.361,9.014,8.171
233.0,3815403.283,-1.6,1.6,2.9,4.0,2.362,2.358,9.023,8.158
237.0,3876779.769,-1.6,1.6,2.9,4.0,2.356,2.358,9.001,8.16
241.0,3938087.033,-1.6,1.6,2.9,4.0,2.351,2.353,8.984,8.141
245.0,3999393.51,-1.6,1.6,2.9,4.0,2.355,2.353,8.999,8.143
249.0,4060633.147,-1.6,1.6,2.9,4.0,2.349,2.355,8.978,8.147
253.0,4121812.815,-1.6,1.6,2.9,4.0,2.35,2.345,8.98,8.11
257.0,4183164.203,-1.6,1.6,2.9,4.0,2.349,2.346,8.978,8.116
261.0,4244410.947,-1.6,1.6,2.9,4.0,2.349,2.352,8.975,8.139
265.0,4305715.484,-1.6,1.6,2.9,4.0,2.342,2.34,8.955,8.092
269.0,4367130.472,-1.6,1.6,2.9,4.0,2.351,2.35,8.983,8.134
273.0,4414840.53,-1.6,1.6,2.9,4.0,1.752,1.758,6.596,5.951
277.0,4476407.104,-1.6,1.6,2.9,4.0,2.346,2.343,8.968,8.105
281.0,4530953.018,-1.6,1.6,2.9,4.0,1.752,1.752,6.593,5.929
285.0,4592354.06,-1.6,1.6,2.9,4.0,2.346,2.346,8.966,8.112
289.0,4653630.566,-1.6,1.6,2.9,4.0,2.332,2.327,8.92,8.042
293.0,4714954.777,-1.6,1.6,2.9,4.0,2.339,2.336,8.944,8.078
297.0,4776208.106,-1.6,1.6,2.9,4.0,2.332,2.327,8.921,8.04
301.0,4830531.517,-1.6,1.6,2.9,4.0,1.723,1.72,6.489,5.814
305.0,4892030.157,-2.145,1.6,2.868,4.0,2.331,2.358,8.917,8.143
309.0,4953414.311,-1.6,1.6,2.9,4.0,2.322,2.32,8.885,8.02
313.0,5014695.554,-1.6,1.6,2.9,4.0,2.324,2.317,8.891,8.006
317.0,5069145.035,-1.6,1.6,2.9,4.0,2.314,2.31,8.859,7.98
321.0,5130508.781,-1.6,1.6,2.9,4.0,2.333,2.324,8.921,8.035
325.0,5191916.716,-1.6,1.6,2.9,4.0,2.315,2.323,8.86,8.028
329.0,5253175.106,-1.6,1.6,2.9,4.0,2.322,2.314,8.884,7.996
333.0,5314507.472,-1.6,1.6,2.9,4.0,2.321,2.32,8.882,8.018
337.0,5375887.111,-1.6,1.6,2.899,4.0,2.298,2.29,8.803,7.904
341.0,5437268.206,-3.107,1.6,2.816,4.0,2.31,2.31,8.842,7.978
345.0,5498633.784,-1.6,1.6,2.9,4.0,2.299,2.318,8.808,8.017
349.0,5560024.167,-1.6,1.6,2.9,4.0,2.304,2.301,8.822,7.946
353.0,5620823.16,-4.606,1.6,2.855,4.0,2.302,2.104,8.814,7.348
357.0,5674560.106,-1.6,1.6,2.9,4.0,2.308,2.305,8.835,7.961
361.0,5721916.997,-1.6,1.6,2.9,4.0,2.317,2.305,8.869,7.962
365.0,5783066.605,-1.6,1.6,2.9,4.0,2.302,2.299,8.817,7.938
369.0,5842817.559,-1.6,1.6,2.9,4.0,2.296,2.289,8.794,7.901
373.0,5904137.979,-1.6,1.6,2.9,4.0,2.287,2.29,8.765,7.908
377.0,5958339.519,-1.6,1.6,2.9,4.0,2.283,2.285,8.751,7.888
381.0,6012539.557,-1.6,1.6,2.9,4.0,2.295,2.284,8.796,7.881
385.0,6072290.336,-1.6,1.6,2.9,4.0,2.286,2.285,8.762,7.885
389.0,6133620.604,-1.6,1.6,2.9,4.0,2.29,2.29,8.774,7.905
393.0,6194915.728,-1.6,1.6,2.9,4.0,2.288,2.288,8.769,7.9
397.0,6256160.874,-1.6,1.6,2.9,4.0,2.284,2.285,8.753,7.887
401.0,6317209.882,-1.6,1.6,2.899,4.0,2.285,2.272,8.755,7.838
405.0,6378445.458,-1.6,1.6,2.897,4.0,2.285,2.278,8.756,7.861
409.0,6439617.832,-3.985,1.6,2.772,4.0,2.285,2.285,8.755,7.883
413.0,6500695.153,-1.6,1.6,2.9,4.0,2.279,2.279,8.735,7.864
417.0,6561787.962,-1.6,1.6,2.9,4.0,2.256,2.255,8.66,7.772
421.0,6623005.128,-1.6,1.6,2.9,4.0,2.259,2.254,8.669,7.769
425.0,6684337.83,-1.6,1.6,2.9,4.0,2.267,2.263,8.696,7.809
429.0,6745471.934,-1.6,1.6,2.9,4.0,2.254,2.257,8.653,7.782
433.0,6806770.499,-1.6,1.6,2.9,4.0,2.25,2.246,8.637,7.741
437.0,6868138.382,-1.6,1.6,2.9,4.0,2.252,2.253,8.645,7.765
441.0,6929514.174,-1.6,1.6,2.9,4.0,2.246,2.253,8.626,7.766
445.0,6983445.395,-1.6,1.6,2.9,4.0,2.254,2.24,8.658,7.718
449.0,7044718.843,-1.6,1.6,2.9,4.0,2.255,2.253,8.654,7.769
453.0,7105996.483,-1.6,1.6,2.9,4.0,2.245,2.242,8.62,7.725
457.0,7159721.037,-1.6,1.6,2.9,4.0,1.608,1.617,6.078,5.445
461.0,7221015.491,-1.6,1.6,2.9,4.0,2.245,2.246,8.619,7.742
465.0,7282106.672,-1.6,1.6,2.9,4.0,2.247,2.242,8.625,7.732
469.0,7343283.952,-1.744,1.6,2.888,4.0,2.238,2.24,8.597,7.721
473.0,7404487.128,-1.6,1.6,2.9,4.0,2.24,2.241,8.601,7.722
477.0,7465664.828,-1.6,1.6,2.9,4.0,2.231,2.232,8.571,7.689
481.0,7526830.042,-1.6,1.6,2.9,4.0,2.243,2.237,8.611,7.708
485.0,7588022.86,-1.6,1.6,2.9,4.0,2.24,2.236,8.602,7.707
489.0,7649275.259,-1.721,1.6,2.889,4.0,2.232,2.235,8.574,7.703
493.0,7710256.419,-1.6,1.6,2.9,4.0,2.234,2.228,8.58,7.676
497.0,7771352.857,-1.716,1.6,2.89,4.0,2.232,2.234,8.573,7.695
501.0,7832368.63,-1.6,1.6,2.9,4.0,2.231,2.231,8.569,7.687
505.0,7893459.045,-1.6,1.6,2.9,4.0,2.229,2.227,8.564,7.671
509.0,7954497.548,-1.6,1.6,2.9,4.0,2.226,2.224,8.554,7.66
513.0,8015535.416,-1.6,1.6,2.9,4.0,2.224,2.22,8.548,7.647
517.0,8076580.642,-1.6,1.6,2.9,4.0,2.226,2.223,8.554,7.662
521.0,8137553.523,-1.6,1.6,2.9,4.0,2.232,2.222,8.574,7.658
525.0,8198455.156,-2.444,1.6,2.85,4.0,2.228,2.227,8.559,7.675
529.0,8259463.807,-1.6,1.6,2.9,4.0,2.209,2.204,8.495,7.585
533.0,8320702.378,-1.6,1.6,2.9,4.0,2.206,2.208,8.488,7.604
537.0,8374405.202,-4.225,1.6,2.759,4.0,2.195,2.193,8.449,7.54
541.0,8435435.052,-1.6,1.6,2.9,4.0,2.206,2.195,8.485,7.553
545.0,8496551.36,-1.6,1.6,2.9,4.0,2.209,2.205,8.496,7.593
549.0,8550241.394,-1.6,1.6,2.9,4.0,2.198,2.2,8.458,7.568
553.0,8611280.749,-3.991,1.6,2.769,4.0,2.204,2.201,8.479,7.575
557.0,8672380.893,-1.6,1.6,2.9,4.0,2.201,2.201,8.469,7.574
561.0,8733390.836,-1.6,1.6,2.9,4.0,2.2,2.201,8.465,7.576
565.0,8794483.187,-1.6,1.6,2.9,4.0,2.2,2.198,8.463,7.566
569.0,8848043.725,-1.6,1.6,2.9,4.0,2.208,2.184,8.5,7.511
573.0,8909023.73,-1.6,1.6,2.9,4.0,2.189,2.186,8.428,7.52
577.0,8969964.513,-1.6,1.6,2.9,4.0,2.191,2.192,8.433,7.543
581.0,9030788.96,-1.6,1.6,2.9,4.0,2.188,2.19,8.421,7.535
585.0,9091654.238,-1.6,1.6,2.9,4.0,2.184,2.181,8.41,7.501
589.0,9152815.777,-1.6,1.6,2.9,4.0,2.155,2.159,8.313,7.416
593.0,9206330.197,-1.649,1.6,2.893,4.0,2.189,2.175,8.436,7.477
597.0,9267252.324,-1.61,1.6,2.895,4.0,2.172,2.166,8.369,7.445
601.0,9328186.42,-1.6,1.6,2.9,4.001,2.179,2.178,8.392,7.492
605.0,9389244.943,-1.6,1.6,2.9,4.0,2.175,2.175,8.379,7.48
609.0,9450076.397,-1.6,1.6,2.9,4.0,2.179,2.177,8.391,7.484
613.0,9511013.618,-1.6,1.6,2.9,4.0,2.176,2.182,8.38,7.508
617.0,9564380.241,-1.6,1.6,2.898,4.0,2.181,2.178,8.4,7.491
621.0,9625281.26,-1.6,1.6,2.9,4.0,2.167,2.172,8.349,7.471
625.0,9678528.803,-1.6,1.6,2.9,4.0,1.529,1.547,5.79,5.192
629.0,9739584.837,-1.6,1.6,2.9,4.001,2.176,2.173,8.379,7.475
633.0,9792680.16,-1.6,1.6,2.9,4.0,1.51,1.532,5.723,5.138
637.0,9853564.369,-1.6,1.6,2.9,4.001,2.17,2.166,8.361,7.448
641.0,9914554.912,-1.6,1.6,2.9,4.0,2.155,2.156,8.311,7.405
645.0,9975535.571,-1.6,1.6,2.9,4.0,2.154,2.159,8.305,7.418
648.0,10018651.64,-1.6,1.6,3.409,4.0,2.161,1.154,8.329,4.166