Folder: ML-project/Li-ion_Batteries (part 12)

File: UL-PUR_R20-NA8_18650_NCA_23C_2.5-96.5_0.5-0.5C_h_cycle_data.csv
Cycle_Index,Test_Time (s),Min_Current (A),Max_Current (A),Min_Voltage (V),Max_Voltage (V),Charge_Capacity (Ah),Discharge_Capacity (Ah),Charge_Energy (Wh),Discharge_Energy (Wh)
1.0,63530.021,-1.599,1.6,2.9,4.163,0.02,3.124,0.083,11.109
5.0,125681.548,-1.599,1.6,2.9,4.0,2.572,2.575,9.751,8.992
9.0,187919.336,-1.599,1.6,2.9,4.0,2.563,2.56,9.722,8.933
13.0,250097.587,-1.599,1.6,2.9,4.0,2.553,2.552,9.686,8.901
17.0,312246.162,-1.599,1.6,2.9,4.0,2.557,2.556,9.697,8.914
21.0,374421.908,-1.599,1.6,2.9,4.0,2.552,2.549,9.68,8.887
25.0,436593.658,-1.599,1.6,2.9,4.0,2.563,2.566,9.719,8.949
29.0,498701.602,-1.599,1.6,2.9,4.0,2.547,2.541,9.666,8.854
33.0,560911.0,-1.599,1.6,2.9,4.0,2.543,2.543,9.65,8.859
37.0,623193.312,-1.599,1.6,2.9,4.0,2.535,2.529,9.628,8.812
41.0,685412.094,-1.599,1.6,2.9,4.0,2.523,2.529,9.587,8.807
45.0,747672.273,-1.599,1.6,2.9,4.0,2.526,2.534,9.597,8.823
49.0,809956.853,-1.6,1.6,2.9,4.0,2.536,2.537,9.629,8.832
53.0,866215.381,-1.599,1.6,2.9,4.0,2.526,2.524,9.599,8.783
57.0,928593.155,-1.6,1.6,2.9,4.0,2.519,2.515,9.573,8.751
61.0,990959.008,-1.599,1.6,2.9,4.0,2.511,2.514,9.549,8.745
65.0,1047252.775,-1.599,1.6,2.9,4.0,2.509,2.51,9.539,8.73
69.0,1109679.082,-1.599,1.6,2.9,4.0,2.505,2.501,9.526,8.693
73.0,1172209.884,-1.599,1.6,2.9,4.0,2.502,2.5,9.52,8.691
77.0,1234705.607,-1.599,1.6,2.9,4.0,2.497,2.495,9.497,8.669
81.0,1297300.915,-1.599,1.6,2.9,4.0,2.493,2.493,9.486,8.663
85.0,1353610.217,-1.599,1.6,2.895,4.0,2.49,2.49,9.477,8.649
89.0,1403530.836,-1.599,1.6,2.9,4.0,1.913,1.923,7.171,6.542
93.0,1466320.823,-1.599,1.6,2.9,4.0,2.483,2.478,9.455,8.602
97.0,1529120.034,-1.599,1.6,2.9,4.0,2.485,2.478,9.461,8.602
101.0,1591983.278,-1.599,1.6,2.9,4.0,2.475,2.474,9.429,8.588
105.0,1648283.73,-1.599,1.6,2.9,4.0,2.472,2.47,9.418,8.573
109.0,1704639.099,-1.599,1.6,2.9,4.0,2.466,2.472,9.396,8.577
113.0,1760969.02,-1.599,1.6,2.9,4.0,2.473,2.463,9.424,8.543
117.0,1823941.905,-1.599,1.6,2.9,4.0,2.464,2.461,9.389,8.538
121.0,1886859.465,-1.599,1.6,2.9,4.0,2.462,2.464,9.382,8.548
125.0,1943127.053,-1.599,1.6,2.9,4.0,1.877,1.88,7.041,6.387
129.0,1999509.657,-1.599,1.6,2.9,4.0,2.464,2.454,9.393,8.511
133.0,2055801.731,-1.6,1.6,2.9,4.0,2.457,2.446,9.368,8.486
137.0,2118836.297,-1.599,1.6,2.9,4.0,2.444,2.446,9.32,8.485
141.0,2181908.027,-1.599,1.6,2.9,4.0,2.445,2.437,9.324,8.448
145.0,2244983.943,-1.599,1.6,2.9,4.0,2.447,2.442,9.329,8.468
149.0,2308012.121,-1.599,1.6,2.9,4.0,2.44,2.426,9.303,8.41
153.0,2371064.658,-1.599,1.6,2.9,4.0,2.423,2.411,9.248,8.352
157.0,2427287.519,-1.6,1.6,2.9,4.0,2.432,2.429,9.278,8.42
161.0,2490287.628,-1.599,1.6,2.9,4.0,2.422,2.423,9.246,8.398
165.0,2546534.925,-1.6,1.6,2.9,4.0,2.421,2.422,9.239,8.391
169.0,2609653.16,-1.599,1.6,2.893,4.0,2.409,2.409,9.201,8.343
173.0,2672734.931,-1.599,1.6,2.9,4.0,2.429,2.419,9.264,8.384
177.0,2728920.063,-1.6,1.6,2.9,4.0,2.404,2.416,9.182,8.369
181.0,2791942.866,-1.599,1.6,2.9,4.0,2.413,2.407,9.213,8.34
185.0,2848127.389,-1.599,1.6,2.9,4.0,2.423,2.41,9.252,8.351
189.0,2911345.861,-1.599,1.6,2.9,4.0,2.387,2.373,9.126,8.213
193.0,2974530.255,-1.599,1.6,2.9,4.0,2.394,2.394,9.145,8.29
197.0,3037649.079,-1.6,1.6,2.9,4.0,2.385,2.415,9.117,8.365
201.0,3100832.982,-1.599,1.6,2.9,4.0,2.387,2.385,9.121,8.259
205.0,3163956.938,-1.599,1.6,2.9,4.0,2.385,2.387,9.115,8.259
209.0,3227013.928,-1.6,1.6,2.9,4.0,2.389,2.395,9.13,8.297
213.0,3289986.108,-1.6,1.6,2.9,4.0,2.388,2.392,9.123,8.287
217.0,3352963.288,-1.599,1.6,2.9,4.0,2.383,2.385,9.108,8.254
221.0,3416051.364,-1.599,1.6,2.9,4.0,2.36,2.369,9.029,8.201
225.0,3479056.108,-1.599,1.6,2.9,4.0,2.359,2.358,9.025,8.158
229.0,3542016.616,-1.599,1.6,2.9,4.0,2.363,2.363,9.04,8.18
233.0,3605085.866,-1.599,1.6,2.9,4.0,2.362,2.36,9.034,8.167
237.0,3668041.232,-1.6,1.6,2.9,4.0,2.364,2.364,9.039,8.182
241.0,3731047.153,-1.599,1.6,2.9,4.0,2.362,2.364,9.035,8.181
245.0,3786824.188,-1.599,1.6,2.9,4.0,2.369,2.353,9.065,8.14
249.0,3849785.367,-1.599,1.6,2.9,4.0,2.36,2.357,9.026,8.157
253.0,3912795.51,-1.599,1.6,2.899,4.0,2.355,2.345,9.01,8.114
257.0,3975761.712,-1.6,1.6,2.9,4.0,2.348,2.358,8.982,8.156
261.0,4031334.583,-1.599,1.6,2.9,4.0,2.321,2.342,8.887,8.103
265.0,4094376.869,-1.599,1.6,2.9,4.0,2.325,2.32,8.907,8.02
269.0,4157464.848,-1.599,1.6,2.9,4.0,2.325,2.321,8.908,8.026
273.0,4220506.588,-1.6,1.6,2.9,4.0,2.326,2.33,8.909,8.06
277.0,4283522.659,-1.599,1.6,2.9,4.0,2.314,2.317,8.869,8.011
281.0,4339095.787,-1.599,1.6,2.9,4.0,2.309,2.306,8.852,7.971
285.0,4394625.324,-1.599,1.6,2.9,4.0,2.304,2.307,8.833,7.974
289.0,4457688.895,-1.599,1.6,2.9,4.0,2.295,2.305,8.805,7.966
293.0,4520723.879,-1.599,1.6,2.9,4.0,2.299,2.297,8.817,7.935
297.0,4583763.731,-1.599,1.6,2.9,4.0,2.311,2.311,8.855,7.988
301.0,4639131.159,-1.599,1.6,2.9,4.0,1.664,1.675,6.273,5.656
305.0,4702270.615,-1.599,1.6,2.9,4.0,2.292,2.292,8.793,7.918
309.0,4757518.46,-1.599,1.6,2.9,4.0,1.65,1.672,6.221,5.645
313.0,4813013.967,-1.599,1.6,2.9,4.0,2.318,2.29,8.887,7.912
317.0,4875906.182,-1.599,1.6,2.9,4.0,2.289,2.287,8.78,7.901
321.0,4938905.951,-1.599,1.6,2.9,4.0,2.285,2.287,8.766,7.904
325.0,5001825.019,-1.599,1.6,2.9,4.0,2.278,2.279,8.743,7.871
329.0,5064690.758,-1.599,1.6,2.9,4.0,2.286,2.281,8.767,7.878
333.0,5127539.588,-1.599,1.6,2.9,4.0,2.285,2.283,8.766,7.888
337.0,5190521.364,-1.599,1.6,2.895,4.0,2.279,2.284,8.745,7.89
341.0,5253344.772,-1.6,1.6,2.9,4.0,2.283,2.278,8.754,7.869
345.0,5316162.469,-1.6,1.6,2.9,4.0,2.276,2.285,8.733,7.895
349.0,5378987.635,-1.599,1.6,2.9,4.0,2.273,2.276,8.723,7.863
353.0,5441723.92,-1.599,1.6,2.9,4.0,2.27,2.275,8.711,7.858
357.0,5504413.403,-1.599,1.6,2.9,4.0,2.271,2.266,8.714,7.825
361.0,5567186.863,-1.599,1.6,2.9,4.0,2.27,2.27,8.711,7.842
365.0,5629837.543,-1.599,1.6,2.9,4.0,2.268,2.264,8.704,7.823
369.0,5692414.244,-1.599,1.6,2.9,4.0,2.262,2.268,8.683,7.833
373.0,5754963.012,-1.599,1.6,2.9,4.0,2.27,2.257,8.708,7.8
377.0,5817616.09,-1.599,1.6,2.9,4.0,2.245,2.242,8.625,7.737
381.0,5880265.931,-1.599,1.6,2.9,4.0,2.246,2.242,8.625,7.74
385.0,5935231.678,-1.599,1.6,2.9,4.0,2.27,2.244,8.72,7.747
389.0,5997853.65,-1.599,1.6,2.9,4.0,2.228,2.226,8.565,7.678
393.0,6052622.495,-1.599,1.6,2.9,4.0,1.59,1.611,6.005,5.433
397.0,6115210.83,-1.599,1.601,2.9,4.0,2.241,2.238,8.607,7.727
401.0,6177775.124,-1.599,1.6,2.9,4.0,2.237,2.242,8.595,7.739
405.0,6240297.757,-1.599,1.6,2.9,4.0,2.236,2.237,8.591,7.722
409.0,6302864.416,-1.599,1.6,2.9,4.0,2.237,2.235,8.594,7.715
413.0,6365364.64,-1.599,1.6,2.9,4.0,2.236,2.237,8.591,7.723
417.0,6428024.4,-1.599,1.601,2.9,4.0,2.232,2.22,8.577,7.659
421.0,6490534.316,-1.599,1.6,2.9,4.0,2.221,2.227,8.54,7.687
425.0,6553014.375,-1.599,1.6,2.9,4.0,2.221,2.224,8.54,7.676
429.0,6607712.039,-1.599,1.6,2.9,4.0,2.227,2.221,8.559,7.663
433.0,6670236.614,-1.599,1.6,2.9,4.0,2.219,2.193,8.532,7.564
437.0,6732996.818,-1.599,1.6,2.9,4.0,2.176,2.208,8.386,7.616
441.0,6795497.556,-1.6,1.6,2.9,4.0,2.213,2.207,8.509,7.61
445.0,6857980.673,-1.599,1.6,2.9,4.0,2.209,2.217,8.498,7.649
449.0,6920309.905,-1.599,1.6,2.899,4.0,2.208,2.211,8.493,7.628
453.0,6982645.93,-1.599,1.6,2.9,4.0,2.212,2.208,8.503,7.619
457.0,7045005.312,-1.599,1.6,2.9,4.0,2.21,2.213,8.499,7.636
461.0,7107257.383,-1.6,1.6,2.9,4.0,2.21,2.212,8.499,7.631
465.0,7161855.363,-1.6,1.6,2.9,4.0,2.211,2.205,8.505,7.605
469.0,7224115.878,-1.599,1.6,2.9,4.0,2.2,2.203,8.46,7.596
473.0,7286322.343,-1.599,1.6,2.9,4.0,2.203,2.204,8.474,7.604
477.0,7348591.593,-1.6,1.6,2.9,4.0,2.198,2.199,8.456,7.588
481.0,7402689.816,-1.599,1.6,2.9,4.0,1.524,1.548,5.767,5.207
485.0,7465080.271,-1.599,1.6,2.9,4.0,2.182,2.183,8.402,7.526
489.0,7527288.234,-1.6,1.6,2.9,4.0,2.184,2.197,8.407,7.576
493.0,7589652.774,-1.599,1.6,2.9,4.0,2.18,2.176,8.394,7.496
497.0,7651762.273,-1.599,1.6,2.9,4.0,2.165,2.171,8.342,7.478
501.0,7713872.034,-1.599,1.6,2.9,4.0,2.178,2.178,8.387,7.51
505.0,7775993.637,-1.599,1.6,2.9,4.0,2.175,2.18,8.376,7.517
509.0,7838060.846,-1.599,1.6,2.9,4.0,2.167,2.175,8.349,7.493
513.0,7900173.508,-1.599,1.6,2.9,4.0,2.151,2.146,8.292,7.387
517.0,7962419.836,-1.599,1.6,2.9,4.0,2.133,2.128,8.232,7.32
521.0,8024747.148,-1.599,1.6,2.9,4.0,2.127,2.124,8.209,7.306
525.0,8086993.23,-1.599,1.6,2.9,4.0,2.13,2.133,8.212,7.341
529.0,8149358.922,-1.599,1.6,2.9,4.0,2.11,2.107,8.153,7.243
533.0,8211618.736,-1.599,1.6,2.9,4.0,2.134,2.145,8.233,7.387
537.0,8273722.128,-1.599,1.6,2.9,4.0,2.136,2.136,8.24,7.354
541.0,8335631.252,-1.599,1.6,2.9,4.0,2.154,2.139,8.301,7.364
545.0,8397644.926,-1.599,1.6,2.9,4.0,2.118,2.111,8.175,7.26
549.0,8459747.695,-1.599,1.6,2.9,4.0,2.128,2.128,8.211,7.322
553.0,8521997.357,-1.599,1.6,2.9,4.0,2.124,2.126,8.195,7.317
557.0,8583930.418,-1.6,1.6,2.9,4.0,2.131,2.133,8.218,7.345
561.0,8645816.202,-1.599,1.6,2.9,4.0,2.118,2.114,8.176,7.273
565.0,8699611.782,-1.599,1.6,2.9,4.0,2.114,2.117,8.162,7.286
569.0,8761585.854,-1.599,1.6,2.9,4.0,2.116,2.121,8.167,7.302
573.0,8823454.95,-1.599,1.6,2.9,4.0,2.12,2.124,8.183,7.312
577.0,8885177.204,-1.599,1.6,2.9,4.0,2.12,2.124,8.178,7.31
581.0,8946803.188,-1.6,1.6,2.9,4.0,2.125,2.115,8.195,7.277
585.0,9008503.988,-1.599,1.6,2.9,4.0,2.112,2.108,8.153,7.255
589.0,9062091.468,-1.599,1.6,2.9,4.0,2.133,2.092,8.238,7.193
593.0,9123978.944,-1.599,1.6,2.9,4.0,2.083,2.089,8.05,7.182
597.0,9185824.771,-1.599,1.6,2.9,4.0,2.077,2.074,8.033,7.126
601.0,9239428.574,-1.599,1.6,2.9,4.0,2.123,2.085,8.204,7.168
605.0,9301232.555,-1.599,1.6,2.9,4.0,2.089,2.081,8.072,7.152
609.0,9362871.548,-1.599,1.6,2.9,4.0,2.081,2.079,8.043,7.144
613.0,9424383.005,-1.599,1.6,2.9,4.0,2.085,2.083,8.055,7.164
617.0,9485965.591,-1.599,1.6,2.9,4.0,2.079,2.077,8.037,7.141
621.0,9547468.712,-1.599,1.6,2.9,4.0,2.073,2.077,8.014,7.142
625.0,9608836.669,-1.599,1.6,2.9,4.0,2.079,2.077,8.033,7.14
629.0,9670329.945,-1.599,1.6,2.9,4.0,2.065,2.065,7.985,7.096
633.0,9723444.716,-1.599,1.6,2.9,4.0,2.092,2.056,8.093,7.063
637.0,9784866.686,-1.599,1.6,2.9,4.0,2.07,2.066,8.001,7.102
641.0,9840249.128,0.064,1.6,3.414,4.0,2.063,0.0,7.97,0.0

File: UL-PUR_R20-NA9_18650_NCA_23C_2.5-96.5_0.5-0.5C_i_cycle_data.csv
Cycle_Index,Test_Time (s),Min_Current (A),Max_Current (A),Min_Voltage (V),Max_Voltage (V),Charge_Capacity (Ah),Discharge_Capacity (Ah),Charge_Energy (Wh),Discharge_Energy (Wh)
1.0,63364.095,-1.61,1.599,2.9,4.164,0.002,3.088,0.008,10.987
5.0,119137.008,-1.6,1.6,2.9,4.0,2.522,2.521,9.572,8.807
9.0,180538.481,-1.6,1.6,2.9,4.0,2.517,2.518,9.553,8.794
13.0,236236.529,-1.6,1.6,2.9,4.0,2.516,2.509,9.55,8.759
17.0,297667.729,-1.6,1.6,2.9,4.0,2.51,2.505,9.53,8.742
21.0,359052.593,-1.601,1.6,2.9,4.0,2.506,2.503,9.514,8.736
25.0,420455.391,-1.6,1.6,2.9,4.0,2.501,2.516,9.496,8.781
29.0,481785.898,-1.6,1.6,2.9,4.0,2.498,2.5,9.487,8.72
33.0,543119.083,-1.6,1.6,2.9,4.0,2.498,2.491,9.487,8.689
37.0,604498.724,-1.6,1.6,2.9,4.0,2.493,2.486,9.471,8.668
41.0,659999.409,-1.6,1.6,2.9,4.0,2.489,2.481,9.458,8.65
45.0,721416.952,-1.6,1.6,2.9,4.0,2.484,2.484,9.442,8.658
49.0,782842.357,-1.6,1.6,2.9,4.0,2.48,2.481,9.43,8.643
53.0,838372.237,-1.6,1.6,2.9,4.0,2.484,2.476,9.444,8.625
57.0,893832.573,-1.6,1.6,2.9,4.0,1.931,1.931,7.237,6.594
61.0,949428.271,-1.6,1.6,2.9,4.0,2.473,2.467,9.408,8.59
65.0,1011046.278,-1.6,1.6,2.9,4.0,2.465,2.464,9.379,8.577
69.0,1066578.011,-1.6,1.6,2.9,4.0,2.465,2.457,9.38,8.551
73.0,1128348.246,-1.6,1.6,2.9,4.0,2.457,2.456,9.354,8.544
77.0,1190128.246,-1.6,1.6,2.9,4.0,2.455,2.451,9.346,8.526
81.0,1251946.174,-1.6,1.6,2.9,4.0,2.449,2.448,9.325,8.515
85.0,1313748.483,-1.6,1.6,2.9,4.0,2.449,2.444,9.325,8.5
89.0,1362985.825,-1.6,1.6,2.9,4.0,2.452,2.447,9.34,8.508
93.0,1424956.449,-1.6,1.6,2.9,4.0,2.438,2.444,9.291,8.494
97.0,1486943.029,-1.6,1.6,2.9,4.0,2.436,2.437,9.283,8.47
101.0,1542530.396,-1.6,1.6,2.9,4.0,1.872,1.879,7.024,6.399
105.0,1604693.959,-1.6,1.6,2.9,4.0,2.433,2.436,9.27,8.464
109.0,1666880.941,-1.6,1.6,2.9,4.0,2.43,2.427,9.263,8.432
113.0,1728930.466,-1.6,1.6,2.9,4.0,2.428,2.428,9.256,8.431
117.0,1784550.17,-1.6,1.6,2.9,4.0,2.427,2.431,9.253,8.443
121.0,1846761.226,-1.6,1.6,2.9,4.0,2.423,2.419,9.239,8.398
125.0,1908999.024,-1.6,1.6,2.9,4.0,2.427,2.42,9.251,8.403
129.0,1971310.268,-1.6,1.6,2.9,4.0,2.419,2.411,9.224,8.371
133.0,2033664.019,-1.6,1.6,2.9,4.0,2.413,2.417,9.205,8.393
137.0,2095924.895,-1.6,1.6,2.9,4.0,2.411,2.408,9.196,8.356
141.0,2158168.171,-1.6,1.6,2.9,4.0,2.422,2.407,9.231,8.355
145.0,2220481.824,-1.6,1.6,2.9,4.0,2.404,2.413,9.173,8.374
149.0,2282808.245,-1.6,1.6,2.9,4.0,2.402,2.402,9.166,8.333
153.0,2345072.333,-1.6,1.6,2.9,4.0,2.402,2.4,9.164,8.323
157.0,2407448.912,-1.6,1.6,2.9,4.0,2.413,2.41,9.201,8.363
161.0,2456310.373,-1.601,1.6,2.9,4.0,1.805,1.813,6.779,6.155
165.0,2519035.383,-1.6,1.6,2.9,4.0,2.389,2.386,9.121,8.27
169.0,2581655.645,-1.6,1.6,2.9,4.0,2.388,2.384,9.116,8.265
173.0,2644218.751,-1.6,1.6,2.9,4.0,2.383,2.388,9.098,8.281
177.0,2706728.594,-1.6,1.6,2.9,4.0,2.38,2.373,9.088,8.225
181.0,2769243.12,-1.6,1.6,2.9,4.0,2.391,2.388,9.125,8.283
185.0,2825007.261,-1.6,1.6,2.9,4.0,2.378,2.383,9.082,8.259
189.0,2887536.614,-1.6,1.6,2.9,4.0,2.38,2.366,9.09,8.196
193.0,2950136.367,-1.6,1.6,2.9,4.0,2.362,2.357,9.027,8.165
197.0,3012778.595,-1.6,1.6,2.9,4.0,2.371,2.362,9.058,8.184
201.0,3075295.956,-1.6,1.6,2.9,4.0,2.361,2.357,9.025,8.164
205.0,3137952.635,-1.6,1.6,2.9,4.0,2.351,2.353,8.99,8.152
209.0,3200635.779,-1.6,1.6,2.9,4.0,2.37,2.365,9.053,8.195
213.0,3263231.617,-1.6,1.6,2.9,4.0,2.37,2.364,9.051,8.192
217.0,3325801.856,-1.6,1.6,2.9,4.0,2.361,2.357,9.021,8.167
221.0,3381167.029,-1.6,1.6,2.9,4.0,1.742,1.75,6.55,5.931
225.0,3443975.567,-1.6,1.6,2.9,4.0,2.345,2.343,8.969,8.116
229.0,3506628.589,-1.6,1.6,2.9,4.0,2.337,2.339,8.938,8.099
233.0,3562164.994,-1.6,1.6,2.9,4.0,2.341,2.337,8.954,8.091
237.0,3624837.03,-1.6,1.6,2.9,4.0,2.337,2.343,8.94,8.111
241.0,3680274.022,-1.6,1.6,2.9,4.0,2.336,2.337,8.936,8.09
245.0,3742914.534,-1.6,1.6,2.9,4.0,2.337,2.332,8.939,8.075
249.0,3805621.126,-1.6,1.6,2.9,4.0,2.334,2.335,8.928,8.087
253.0,3860808.21,-1.6,1.6,2.9,4.0,1.694,1.711,6.38,5.792
257.0,3923650.591,-1.601,1.6,2.9,4.0,2.327,2.33,8.903,8.067
261.0,3975161.744,-1.6,1.6,2.9,3.999,0.859,0.899,3.131,2.944
265.0,4037997.327,-1.6,1.6,2.9,4.0,2.323,2.322,8.89,8.037
269.0,4100652.619,-1.6,1.6,2.9,4.0,2.297,2.296,8.803,7.937
273.0,4163363.922,-1.6,1.6,2.9,4.0,2.3,2.293,8.811,7.928
277.0,4226042.578,-1.6,1.6,2.9,4.0,2.297,2.291,8.801,7.922
281.0,4288730.0,-1.6,1.6,2.9,4.0,2.286,2.287,8.764,7.908
285.0,4351436.6,-1.6,1.6,2.9,4.0,2.274,2.268,8.725,7.838
289.0,4414167.6,-1.6,1.6,2.9,4.0,2.278,2.274,8.737,7.859
293.0,4476905.239,-1.6,1.6,2.9,4.0,2.284,2.29,8.755,7.918
297.0,4539573.793,-1.6,1.6,2.9,4.0,2.279,2.283,8.738,7.893
301.0,4602183.492,-1.6,1.6,2.9,4.0,2.283,2.271,8.751,7.848
305.0,4664887.201,-1.6,1.6,2.9,4.0,2.279,2.273,8.739,7.857
309.0,4719961.426,-1.6,1.6,2.9,4.0,1.641,1.659,6.185,5.607
313.0,4782733.742,-1.6,1.6,2.9,4.0,2.278,2.274,8.734,7.859
317.0,4845382.235,-1.6,1.6,2.9,4.0,2.276,2.271,8.728,7.85
321.0,4908012.001,-1.6,1.6,2.9,4.0,2.268,2.265,8.699,7.829
325.0,4962920.454,-1.6,1.6,2.9,4.0,1.624,1.643,6.126,5.55
329.0,5025746.488,-1.6,1.6,2.9,4.0,2.263,2.261,8.681,7.814
333.0,5088326.657,-1.6,1.6,2.9,4.0,2.263,2.265,8.685,7.83
337.0,5150899.732,-1.6,1.6,2.9,4.0,2.26,2.261,8.671,7.814
341.0,5206035.179,-1.6,1.6,2.9,4.0,2.258,2.252,8.664,7.778
345.0,5268660.156,-1.6,1.6,2.9,4.0,2.254,2.254,8.649,7.787
349.0,5331302.822,-1.6,1.6,2.9,4.0,2.256,2.249,8.656,7.771
353.0,5393855.326,-1.6,1.6,2.9,4.0,2.252,2.246,8.641,7.759
357.0,5448710.8,-1.6,1.6,2.9,4.0,2.245,2.247,8.619,7.761
361.0,5511284.474,-1.6,1.6,2.9,4.0,2.241,2.236,8.604,7.719
365.0,5573892.431,-1.6,1.6,2.9,4.0,2.24,2.235,8.6,7.72
369.0,5636483.601,-1.6,1.6,2.9,4.0,2.24,2.239,8.601,7.736
373.0,5691395.976,-1.6,1.6,2.9,4.0,2.263,2.237,8.689,7.725
377.0,5753868.087,-1.6,1.6,2.9,4.0,2.24,2.234,8.6,7.713
381.0,5808736.806,-1.6,1.6,2.9,4.0,2.216,2.21,8.519,7.622
385.0,5871415.334,-1.6,1.6,2.9,4.0,2.222,2.213,8.538,7.638
389.0,5934147.613,-1.6,1.6,2.9,4.0,2.219,2.216,8.528,7.65
393.0,5996426.674,-1.6,1.6,2.854,4.0,2.204,2.198,8.477,7.579
397.0,6051125.24,-1.6,1.6,2.9,4.0,2.213,2.203,8.505,7.601
401.0,6113620.356,-1.6,1.6,2.9,4.0,2.209,2.206,8.492,7.611
405.0,6176206.745,-1.6,1.6,2.9,4.0,2.202,2.205,8.469,7.605
409.0,6230745.319,-1.6,1.6,2.898,4.0,1.554,1.582,5.87,5.331
413.0,6285680.353,-1.6,1.6,2.9,4.0,2.204,2.202,8.476,7.596
417.0,6340385.291,-1.6,1.6,2.9,4.0,2.198,2.197,8.454,7.578
421.0,6402805.418,-1.6,1.6,2.9,4.0,2.194,2.194,8.439,7.566
425.0,6465354.48,-1.6,1.6,2.9,4.0,2.195,2.191,8.442,7.555
429.0,6519848.22,-1.6,1.6,2.9,4.0,1.537,1.567,5.808,5.277
433.0,6582379.746,-1.6,1.6,2.9,4.0,2.185,2.192,8.408,7.561
437.0,6636699.178,-1.6,1.6,2.9,4.0,1.516,1.544,5.733,5.196
441.0,6699433.229,-1.6,1.6,2.9,4.0,2.158,2.146,8.313,7.387
445.0,6762195.1,-1.6,1.6,2.9,4.0,2.175,2.173,8.372,7.491
449.0,6824729.113,-1.6,1.6,2.9,4.0,2.168,2.167,8.347,7.469
453.0,6887150.16,-1.6,1.6,2.9,4.0,2.167,2.163,8.347,7.451
457.0,6949562.528,-1.6,1.6,2.9,4.0,2.172,2.17,8.361,7.48
461.0,7011915.49,-1.6,1.6,2.9,4.0,2.175,2.172,8.372,7.489
465.0,7074260.915,-1.6,1.6,2.9,4.0,2.173,2.175,8.364,7.5
469.0,7136567.179,-1.6,1.6,2.9,4.0,2.174,2.17,8.366,7.482
473.0,7198689.77,-1.6,1.6,2.9,4.0,2.168,2.165,8.348,7.464
477.0,7260951.07,-1.6,1.6,2.9,4.0,2.17,2.168,8.352,7.472
481.0,7323106.811,-1.6,1.6,2.9,4.0,2.159,2.158,8.316,7.437
485.0,7385226.813,-1.6,1.6,2.9,4.001,2.167,2.167,8.344,7.472
489.0,7447355.792,-1.6,1.6,2.9,4.0,2.155,2.152,8.3,7.415
493.0,7509479.039,-1.6,1.6,2.9,4.0,2.148,2.155,8.278,7.428
497.0,7563636.67,-1.6,1.6,2.9,4.0,2.157,2.149,8.308,7.402
501.0,7625902.191,-1.6,1.6,2.9,4.0,2.136,2.137,8.236,7.36
505.0,7688184.212,-1.6,1.6,2.9,4.0,2.155,2.148,8.299,7.402
509.0,7750351.714,-1.6,1.6,2.9,4.0,2.144,2.143,8.262,7.382
513.0,7812524.101,-1.6,1.6,2.9,4.0,2.145,2.142,8.267,7.381
517.0,7866297.307,-1.6,1.6,2.9,4.0,1.467,1.494,5.555,5.023
521.0,7928760.894,-1.6,1.6,2.9,4.0,2.117,2.112,8.168,7.267
525.0,7991148.845,-1.6,1.6,2.9,4.0,2.1,2.102,8.109,7.228
529.0,8053548.83,-1.6,1.602,2.9,4.0,2.091,2.094,8.079,7.198
533.0,8107534.121,-1.6,1.6,2.9,4.0,2.129,2.087,8.223,7.173
537.0,8169920.681,-1.6,1.6,2.9,4.0,2.075,2.092,8.023,7.191
541.0,8232052.658,-1.6,1.6,2.9,4.0,2.108,2.103,8.137,7.237
545.0,8294223.832,-1.6,1.6,2.9,4.0,2.114,2.12,8.155,7.299
549.0,8356199.425,-1.6,1.6,2.9,4.0,2.108,2.103,8.134,7.236
553.0,8418365.212,-1.6,1.6,2.9,4.0,2.079,2.082,8.035,7.154
557.0,8480336.198,-1.6,1.6,2.9,4.0,2.091,2.087,8.076,7.177
561.0,8542422.135,-1.6,1.6,2.9,4.0,2.094,2.095,8.086,7.207
565.0,8604360.114,-1.6,1.6,2.9,4.0,2.099,2.097,8.103,7.216
569.0,8666315.868,-1.6,1.6,2.9,4.0,2.081,2.072,8.039,7.121
573.0,8728443.531,-1.6,1.6,2.9,4.0,2.089,2.083,8.07,7.163
577.0,8790351.554,-1.6,1.6,2.9,4.0,2.088,2.087,8.065,7.177
581.0,8852304.942,-1.6,1.6,2.9,4.0,2.097,2.097,8.095,7.216
585.0,8905679.247,-1.6,1.6,2.9,4.0,1.415,1.449,5.369,4.864
589.0,8967872.64,-1.6,1.6,2.9,4.0,2.088,2.078,8.065,7.146
593.0,9029607.5,-1.6,1.6,2.9,4.0,2.079,2.079,8.033,7.15
597.0,9091474.124,-1.6,1.6,2.9,4.0,2.055,2.049,7.945,7.037
601.0,9145041.493,-1.6,1.6,2.9,4.0,2.06,2.055,7.965,7.06
605.0,9206976.523,-1.6,1.6,2.9,4.0,2.05,2.057,7.931,7.069
609.0,9268786.592,-1.6,1.6,2.9,4.0,2.053,2.046,7.942,7.027
613.0,9330611.171,-1.6,1.6,2.9,4.0,2.057,2.056,7.954,7.067
617.0,9383728.385,-1.6,1.6,2.9,4.0,1.352,1.394,5.138,4.672
621.0,9437420.097,-1.6,1.6,2.9,4.0,2.055,2.053,7.948,7.053
625.0,9490852.745,-1.6,1.6,2.9,4.0,2.045,2.041,7.911,7.01
629.0,9552561.346,-1.6,1.6,2.899,4.0,2.042,2.046,7.899,7.026
633.0,9614250.658,-1.6,1.6,2.9,4.0,2.047,2.042,7.918,7.016
637.0,9675882.839,-1.6,1.6,2.9,4.0,2.033,2.034,7.87,6.985
641.0,9737492.523,-1.6,1.6,2.9,4.0,2.03,2.027,7.858,6.959
645.0,9790379.946,-1.6,1.6,2.9,4.0,1.34,1.378,5.092,4.615
649.0,9838692.373,1.599,1.6,3.415,3.851,0.841,0.0,3.132,0.0