Folder: ML-project/Li-ion_Batteries (part 5)

File: UL-PUR_N10-OV8_18650_NCA_23C_0-100_0.5-0.5C_h_cycle_data.csv
Cycle_Index,Test_Time (s),Min_Current (A),Max_Current (A),Min_Voltage (V),Max_Voltage (V),Charge_Capacity (Ah),Discharge_Capacity (Ah),Charge_Energy (Wh),Discharge_Energy (Wh)
1.0,18030.038,-1.133,1.134,2.7,4.2,0.819,3.302,3.389,11.674
3.0,69910.75,-1.133,1.134,2.7,4.2,3.307,3.299,12.655,11.652
5.0,121808.572,-1.133,1.134,2.7,4.2,3.307,3.3,12.652,11.662
7.0,173761.306,-1.133,1.134,2.7,4.2,3.307,3.3,12.654,11.66
9.0,220557.94,-1.133,1.134,2.7,4.2,2.928,2.925,11.068,10.183
11.0,267280.482,-1.133,1.134,2.7,4.2,3.304,3.297,12.646,11.645
13.0,319578.977,-1.133,1.134,2.7,4.2,3.303,3.297,12.645,11.639
15.0,372036.774,-1.133,1.134,2.7,4.2,3.301,3.293,12.641,11.616
17.0,424912.768,-1.133,1.134,2.7,4.2,3.298,3.29,12.633,11.598
19.0,477457.318,-1.133,1.134,2.7,4.2,3.298,3.293,12.631,11.62
21.0,529987.223,-1.133,1.134,2.7,4.2,3.298,3.291,12.628,11.608
23.0,576983.667,-1.133,1.135,2.7,4.2,3.298,3.29,12.626,11.601
25.0,629560.418,-1.133,1.134,2.7,4.2,3.296,3.29,12.622,11.6
27.0,682255.819,-1.133,1.134,2.7,4.2,3.295,3.286,12.617,11.576
29.0,735521.686,-1.133,1.134,2.7,4.2,3.291,3.284,12.61,11.561
31.0,788924.032,-1.133,1.134,2.7,4.2,3.29,3.281,12.609,11.54
33.0,842463.65,-1.133,1.134,2.7,4.2,3.286,3.28,12.598,11.529
35.0,896244.072,-1.133,1.134,2.7,4.2,3.285,3.278,12.596,11.518
37.0,950006.132,-1.133,1.134,2.7,4.2,3.283,3.276,12.588,11.512
39.0,1003694.556,-1.133,1.134,2.7,4.2,3.283,3.276,12.585,11.515
41.0,1054407.012,-1.6,1.134,2.7,4.2,3.28,3.273,12.579,11.349
43.0,1096698.735,-1.6,1.601,2.7,4.2,3.278,3.272,12.694,11.339
45.0,1139329.879,-1.6,1.601,2.7,4.2,3.274,3.268,12.682,11.317
47.0,1179357.047,-1.6,1.601,2.7,4.2,3.267,3.014,12.661,10.62
49.0,1215891.041,-1.6,1.601,2.7,4.201,3.025,3.008,11.782,10.591
51.0,1252493.477,-1.6,1.601,2.7,4.2,3.021,3.012,11.773,10.596
53.0,1289295.356,-1.6,1.601,2.7,4.2,3.017,3.015,11.76,10.606
55.0,1326078.651,-1.6,1.601,2.7,4.2,3.016,2.997,11.761,10.535
57.0,1362927.987,-1.6,1.601,2.7,4.2,3.012,3.003,11.744,10.551
59.0,1399827.845,-1.6,1.601,2.7,4.2,3.002,3.004,11.712,10.546
61.0,1436854.308,-1.6,1.601,2.7,4.2,3.005,3.002,11.724,10.535
63.0,1473780.929,-1.6,1.601,2.7,4.2,3.003,2.997,11.717,10.516
65.0,1510834.548,-1.6,1.601,2.7,4.2,2.993,2.997,11.681,10.51
67.0,1547917.366,-1.6,1.601,2.7,4.2,2.997,2.987,11.695,10.479
69.0,1585027.476,-1.6,1.601,2.7,4.2,2.984,2.982,11.654,10.456
71.0,1622320.959,-1.6,1.601,2.7,4.2,2.995,2.992,11.694,10.482
73.0,1659483.699,-1.6,1.601,2.7,4.2,2.985,2.978,11.655,10.436
75.0,1696759.077,-1.6,1.601,2.7,4.2,2.989,2.976,11.675,10.427
77.0,1734047.008,-1.6,1.601,2.7,4.2,2.985,2.996,11.661,10.502
79.0,1771268.933,-1.6,1.601,2.696,4.201,3.004,2.999,11.723,10.51
81.0,1808561.134,-1.6,1.601,2.7,4.201,3.002,2.996,11.715,10.497
83.0,1845844.485,-1.6,1.601,2.7,4.201,2.999,2.969,11.707,10.414
85.0,1883718.925,-1.6,1.601,2.7,4.2,2.913,2.898,11.43,10.098
87.0,1921781.415,-1.6,1.601,2.7,4.2,2.942,2.951,11.521,10.312
89.0,1959407.656,-1.6,1.601,2.7,4.2,2.961,2.957,11.585,10.337
91.0,1997037.283,-1.6,1.601,2.7,4.2,2.946,2.936,11.535,10.25
93.0,2034846.708,-1.6,1.601,2.7,4.2,2.942,2.928,11.521,10.217
95.0,2072788.055,-1.6,1.601,2.7,4.2,2.926,2.952,11.469,10.283
97.0,2110666.642,-1.6,1.601,2.7,4.2,2.942,2.932,11.524,10.232
99.0,2140685.555,-1.6,1.601,2.7,4.2,2.936,2.94,11.504,10.263
101.0,2170779.379,-1.6,1.601,2.7,4.2,2.353,2.348,9.049,8.033
103.0,2208627.687,-1.6,1.601,2.7,4.2,2.937,2.923,11.506,10.192
105.0,2246682.621,-1.6,1.601,2.7,4.2,2.929,2.91,11.483,10.138
107.0,2284724.228,-1.6,1.601,2.7,4.2,2.917,2.904,11.444,10.119
109.0,2322905.2,-1.6,1.601,2.7,4.2,2.9,2.888,11.386,10.045
111.0,2360943.002,-1.6,1.601,2.7,4.2,2.905,2.901,11.402,10.099
113.0,2399184.045,-1.6,1.601,2.699,4.2,2.9,2.889,11.385,10.047
115.0,2437399.135,-1.6,1.601,2.7,4.2,2.903,2.897,11.397,10.081
117.0,2475737.936,-1.6,1.601,2.7,4.2,2.899,2.896,11.384,10.082
119.0,2514045.739,-1.6,1.601,2.7,4.2,2.89,2.887,11.351,10.039
121.0,2552202.892,-1.6,1.601,2.7,4.2,2.897,2.883,11.375,10.024
123.0,2590554.319,-1.6,1.601,2.7,4.2,2.882,2.884,11.327,10.026
125.0,2620455.186,-1.6,1.601,2.7,4.2,2.259,2.262,8.716,7.702
127.0,2658975.797,-1.6,1.601,2.7,4.2,2.877,2.87,11.312,9.968
129.0,2697417.101,-1.6,1.601,2.7,4.2,2.869,2.852,11.284,9.898
131.0,2736000.315,-1.6,1.601,2.7,4.2,2.861,2.852,11.256,9.896
133.0,2774476.312,-1.6,1.601,2.7,4.2,2.858,2.85,11.248,9.891
135.0,2813151.997,-1.6,1.601,2.7,4.2,2.852,2.848,11.229,9.878
137.0,2851851.388,-1.6,1.601,2.7,4.2,2.853,2.846,11.233,9.874
139.0,2890532.211,-1.6,1.601,2.7,4.2,2.862,2.867,11.259,9.957
141.0,2929070.669,-1.6,1.601,2.7,4.2,2.851,2.844,11.225,9.86
143.0,2967881.077,-1.6,1.601,2.7,4.2,2.842,2.839,11.196,9.841
145.0,3006533.007,-1.6,1.601,2.7,4.2,2.842,2.837,11.19,9.833
147.0,3036516.579,-1.6,1.601,2.7,4.2,2.848,2.834,11.22,9.821
149.0,3075443.516,-1.6,1.601,2.7,4.2,2.834,2.828,11.167,9.8
151.0,3114279.303,-1.6,1.601,2.7,4.2,2.834,2.826,11.168,9.79
153.0,3153101.246,-1.6,1.601,2.7,4.2,2.827,2.824,11.143,9.782
155.0,3191869.906,-1.6,1.601,2.7,4.2,2.829,2.824,11.151,9.783
157.0,3230572.185,-1.6,1.601,2.7,4.2,2.828,2.82,11.147,9.767
159.0,3269348.966,-1.6,1.601,2.7,4.2,2.832,2.828,11.16,9.799
161.0,3307978.743,-1.6,1.601,2.7,4.2,2.826,2.817,11.137,9.751
163.0,3346791.261,-1.6,1.601,2.7,4.2,2.822,2.815,11.124,9.747
165.0,3385557.58,-1.6,1.601,2.7,4.2,2.819,2.809,11.115,9.721
167.0,3424344.888,-1.6,1.601,2.7,4.2,2.815,2.81,11.102,9.724
169.0,3463199.452,-1.6,1.601,2.7,4.2,2.816,2.804,11.104,9.702
171.0,3502029.007,-1.6,1.601,2.7,4.2,2.805,2.802,11.07,9.696
173.0,3540860.057,-1.6,1.601,2.7,4.2,2.806,2.801,11.07,9.69
175.0,3579777.9,-1.6,1.601,2.7,4.2,2.8,2.795,11.053,9.668
177.0,3618757.697,-1.6,1.601,2.7,4.2,2.801,2.795,11.053,9.671
179.0,3657661.201,-1.6,1.601,2.7,4.2,2.8,2.789,11.05,9.641
181.0,3687495.521,-1.6,1.601,2.7,4.2,2.808,2.788,11.084,9.651
183.0,3726458.395,-1.6,1.601,2.7,4.2,2.794,2.787,11.032,9.633
185.0,3765272.054,-1.6,1.601,2.7,4.2,2.789,2.784,11.014,9.623
187.0,3804235.948,-1.6,1.601,2.7,4.2,2.788,2.781,11.009,9.614
189.0,3843129.698,-1.6,1.601,2.7,4.2,2.785,2.772,10.999,9.574
191.0,3882183.62,-1.6,1.601,2.7,4.2,2.784,2.782,10.996,9.612
193.0,3921053.309,-1.6,1.601,2.7,4.2,2.78,2.772,10.981,9.58
195.0,3959954.389,-1.6,1.601,2.7,4.2,2.78,2.77,10.977,9.57
197.0,3998880.916,-1.6,1.601,2.7,4.2,2.779,2.77,10.975,9.571
199.0,4037769.996,-1.6,1.601,2.7,4.2,2.771,2.763,10.952,9.544
201.0,4076608.404,-1.6,1.601,2.7,4.2,2.77,2.766,10.945,9.554
202.0,4079897.764,1.6,1.601,3.393,3.972,1.462,0.0,5.529,0.0

File: UL-PUR_N15-EX4_18650_NCA_23C_0-100_0.5-0.5C_d_cycle_data.csv
Cycle_Index,Test_Time (s),Min_Current (A),Max_Current (A),Min_Voltage (V),Max_Voltage (V),Charge_Capacity (Ah),Discharge_Capacity (Ah),Charge_Energy (Wh),Discharge_Energy (Wh)
1.0,9382.878,-1.6,1.6,2.7,4.261,0.052,3.335,0.191,11.734
3.0,47635.876,-1.6,1.6,2.7,4.2,3.313,3.303,12.768,11.629
5.0,86009.452,-1.6,1.601,2.7,4.2,3.31,3.305,12.756,11.628
7.0,124510.046,-1.6,1.601,2.7,4.2,3.31,3.305,12.758,11.618
9.0,163136.974,-1.6,1.6,2.7,4.2,3.309,3.303,12.755,11.603
11.0,201934.141,-1.6,1.601,2.7,4.2,3.308,3.302,12.754,11.594
13.0,240868.471,-1.6,1.601,2.7,4.2,3.307,3.301,12.751,11.588
15.0,279913.68,-1.6,1.6,2.7,4.2,3.306,3.299,12.748,11.572
17.0,319109.925,-1.6,1.601,2.7,4.2,3.303,3.298,12.744,11.563
19.0,358523.347,-1.6,1.601,2.7,4.2,3.302,3.296,12.741,11.544
21.0,398031.772,-1.6,1.601,2.7,4.2,3.301,3.296,12.74,11.539
23.0,437745.806,-1.6,1.6,2.7,4.2,3.3,3.295,12.737,11.529
25.0,477610.134,-1.6,1.601,2.7,4.2,3.299,3.293,12.738,11.515
27.0,517730.148,-1.6,1.601,2.7,4.2,3.297,3.291,12.732,11.497
29.0,557809.667,-1.6,1.6,2.7,4.2,3.297,3.293,12.733,11.508
31.0,597923.053,-1.6,1.601,2.7,4.2,3.297,3.291,12.731,11.497
33.0,638230.481,-1.6,1.601,2.7,4.2,3.295,3.29,12.727,11.484
35.0,678689.37,-1.6,1.601,2.7,4.2,3.294,3.287,12.725,11.462
37.0,719365.643,-1.6,1.601,2.7,4.2,3.292,3.286,12.721,11.454
39.0,760134.241,-1.6,1.601,2.7,4.2,3.291,3.284,12.718,11.444
41.0,801122.782,-1.6,1.601,2.7,4.2,3.287,3.282,12.712,11.429
43.0,842140.507,-1.6,1.601,2.7,4.2,3.287,3.282,12.711,11.429
45.0,883385.64,-1.6,1.601,2.7,4.2,3.285,3.278,12.706,11.404
47.0,924828.183,-1.6,1.601,2.7,4.2,3.282,3.278,12.699,11.402
49.0,966386.855,-1.6,1.601,2.7,4.2,3.28,3.275,12.692,11.381
51.0,1008040.252,-1.6,1.601,2.7,4.2,3.279,3.273,12.689,11.369
53.0,1044180.306,-1.6,1.601,2.7,4.2,3.277,3.269,12.688,11.34
55.0,1086236.842,-1.6,1.601,2.7,4.2,3.275,3.269,12.681,11.341
57.0,1122525.876,-1.6,1.6,2.7,4.2,3.273,3.266,12.682,11.318
59.0,1164518.378,-1.6,1.601,2.7,4.2,3.275,3.268,12.677,11.335
61.0,1206862.242,-1.6,1.601,2.7,4.2,3.271,3.265,12.672,11.318
63.0,1249316.776,-1.6,1.6,2.7,4.2,3.269,3.263,12.664,11.302
65.0,1291839.252,-1.6,1.601,2.7,4.2,3.269,3.263,12.665,11.302
67.0,1334425.835,-1.6,1.601,2.7,4.2,3.267,3.261,12.66,11.283
69.0,1377518.567,-1.6,1.601,2.7,4.2,3.263,3.255,12.651,11.245
71.0,1420663.721,-1.6,1.601,2.7,4.2,3.261,3.254,12.645,11.244
73.0,1463922.972,-1.6,1.601,2.7,4.2,3.259,3.253,12.641,11.24
75.0,1507366.481,-1.6,1.601,2.7,4.2,3.259,3.251,12.635,11.223
77.0,1550414.699,-1.6,1.601,2.7,4.201,3.26,3.255,12.639,11.254
79.0,1593618.949,-1.6,1.601,2.7,4.2,3.258,3.252,12.633,11.234
81.0,1637017.747,-1.6,1.601,2.7,4.2,3.256,3.249,12.627,11.216
83.0,1680761.252,-1.6,1.601,2.7,4.2,3.253,3.246,12.62,11.196
85.0,1724604.635,-1.6,1.601,2.7,4.2,3.249,3.243,12.612,11.172
87.0,1761751.837,-1.6,1.601,2.7,4.2,2.702,2.699,10.321,9.109
89.0,1805839.359,-1.6,1.601,2.7,4.2,3.244,3.237,12.6,11.14
91.0,1849808.928,-1.6,1.601,2.7,4.2,3.241,3.236,12.588,11.136
93.0,1894010.244,-1.6,1.601,2.7,4.2,3.24,3.234,12.589,11.126
95.0,1938044.781,-1.6,1.601,2.7,4.2,3.238,3.231,12.58,11.108
97.0,1982359.825,-1.6,1.601,2.7,4.2,3.235,3.228,12.574,11.086
99.0,2027141.111,-1.6,1.601,2.7,4.2,3.231,3.227,12.567,11.078
101.0,2070992.072,-1.6,1.601,2.7,4.201,3.238,3.233,12.575,11.121
103.0,2114929.341,-1.6,1.601,2.7,4.201,3.235,3.228,12.564,11.093
105.0,2158830.119,-1.6,1.601,2.7,4.201,3.235,3.229,12.565,11.098
107.0,2202900.59,-1.6,1.601,2.7,4.201,3.233,3.227,12.562,11.089
109.0,2247571.199,-1.6,1.601,2.7,4.2,3.224,3.218,12.542,11.031
111.0,2285028.436,-1.6,1.601,2.7,4.2,2.655,2.652,10.16,8.902
113.0,2330088.568,-1.6,1.601,2.7,4.2,3.22,3.214,12.534,11.009
115.0,2375296.375,-1.6,1.601,2.7,4.2,3.218,3.212,12.527,10.996
117.0,2420708.794,-1.6,1.601,2.7,4.201,3.216,3.21,12.525,10.988
119.0,2466132.683,-1.6,1.601,2.7,4.2,3.211,3.205,12.507,10.958
121.0,2511210.975,-1.6,1.601,2.7,4.2,3.211,3.208,12.506,10.977
123.0,2556325.465,-1.6,1.601,2.7,4.201,3.213,3.207,12.51,10.972
125.0,2601836.792,-1.6,1.601,2.7,4.201,3.209,3.202,12.497,10.949
127.0,2646950.097,-1.6,1.601,2.7,4.201,3.208,3.201,12.493,10.945
129.0,2692588.395,-1.6,1.601,2.7,4.201,3.205,3.2,12.491,10.931
131.0,2730357.893,-1.6,1.601,2.7,4.2,2.621,2.619,10.042,8.755
133.0,2776495.514,-1.6,1.601,2.7,4.2,3.202,3.191,12.479,10.874
135.0,2822676.148,-1.6,1.601,2.7,4.2,3.198,3.192,12.471,10.883
137.0,2868369.625,-1.6,1.601,2.7,4.201,3.201,3.197,12.477,10.918
139.0,2914177.315,-1.6,1.601,2.7,4.201,3.199,3.193,12.468,10.902
141.0,2959864.476,-1.6,1.601,2.7,4.201,3.197,3.191,12.462,10.888
143.0,3005686.437,-1.6,1.601,2.7,4.201,3.197,3.191,12.462,10.888
145.0,3051483.987,-1.6,1.601,2.7,4.201,3.196,3.189,12.455,10.879
147.0,3097721.279,-1.6,1.601,2.7,4.2,3.187,3.181,12.441,10.827
149.0,3144426.89,-1.6,1.601,2.7,4.201,3.185,3.178,12.431,10.811
151.0,3191183.555,-1.6,1.601,2.7,4.2,3.18,3.174,12.417,10.794
153.0,3238116.007,-1.6,1.601,2.7,4.201,3.179,3.172,12.417,10.777
155.0,3285196.564,-1.6,1.601,2.7,4.2,3.177,3.169,12.41,10.767
157.0,3332510.849,-1.6,1.601,2.7,4.2,3.175,3.169,12.405,10.763
159.0,3379533.441,-1.6,1.601,2.7,4.201,3.175,3.17,12.401,10.772
161.0,3426683.798,-1.6,1.601,2.7,4.201,3.173,3.167,12.398,10.751
163.0,3473773.23,-1.6,1.601,2.7,4.201,3.172,3.164,12.391,10.74
165.0,3520897.813,-1.6,1.601,2.7,4.2,3.169,3.162,12.381,10.731
167.0,3555687.953,-1.6,1.601,2.7,4.201,3.166,2.814,12.375,9.784
169.0,3593822.899,-1.6,1.601,2.7,4.201,2.822,2.811,11.098,9.76
171.0,3631777.676,-1.6,1.601,2.7,4.201,2.806,2.804,11.042,9.727
173.0,3669904.442,-1.6,1.601,2.7,4.201,2.806,2.808,11.042,9.742
175.0,3708205.908,-1.6,1.601,2.7,4.201,2.809,2.792,11.055,9.68
177.0,3746463.862,-1.6,1.601,2.7,4.201,2.801,2.802,11.023,9.71
179.0,3784702.103,-1.6,1.601,2.7,4.201,2.805,2.795,11.041,9.685
181.0,3823000.377,-1.6,1.601,2.7,4.201,2.796,2.795,11.006,9.684
183.0,3861097.249,-1.6,1.601,2.7,4.201,2.798,2.788,11.013,9.657
185.0,3899256.197,-1.6,1.601,2.7,4.2,2.793,2.784,10.995,9.64
187.0,3937466.795,-1.6,1.601,2.7,4.201,2.801,2.788,11.023,9.651
189.0,3975623.094,-1.6,1.601,2.7,4.2,2.793,2.786,10.995,9.646
191.0,4014059.138,-1.6,1.601,2.7,4.2,2.792,2.785,10.992,9.642
193.0,4052467.169,-1.6,1.601,2.7,4.2,2.796,2.785,11.006,9.636
195.0,4090919.199,-1.6,1.601,2.7,4.2,2.791,2.784,10.99,9.636
197.0,4120702.041,-1.6,1.601,2.7,4.2,2.203,2.211,8.509,7.509
199.0,4158476.305,-1.6,1.601,2.7,4.201,2.812,2.806,11.057,9.72
201.0,4196608.235,-1.6,1.601,2.699,4.201,2.811,2.807,11.053,9.723
203.0,4234800.918,-1.6,1.601,2.7,4.201,2.813,2.765,11.064,9.57
205.0,4273655.87,-1.599,1.6,2.7,4.2,2.724,2.706,10.769,9.311
207.0,4312595.971,-1.6,1.601,2.7,4.2,2.763,2.764,10.896,9.548
209.0,4351200.502,-1.6,1.601,2.7,4.2,2.778,2.771,10.948,9.577
211.0,4389841.962,-1.6,1.601,2.7,4.2,2.759,2.75,10.883,9.491
213.0,4428339.729,-1.6,1.6,2.7,4.2,2.752,2.738,10.859,9.437
215.0,4466796.045,-1.6,1.601,2.7,4.201,2.74,2.748,10.822,9.476
217.0,4505278.421,-1.6,1.601,2.7,4.2,2.759,2.747,10.882,9.473
219.0,4543734.707,-1.6,1.601,2.7,4.2,2.764,2.757,10.9,9.519
221.0,4582158.172,-1.6,1.601,2.7,4.2,2.767,2.757,10.905,9.514
223.0,4620519.798,-1.6,1.601,2.7,4.2,2.757,2.736,10.873,9.432
225.0,4659140.099,-1.6,1.601,2.7,4.2,2.741,2.734,10.822,9.417
227.0,4697608.755,-1.6,1.601,2.7,4.2,2.735,2.72,10.793,9.36
229.0,4736482.181,-1.6,1.601,2.7,4.2,2.737,2.73,10.809,9.4
231.0,4775127.741,-1.599,1.601,2.695,4.2,2.731,2.718,10.79,9.353
233.0,4813991.508,-1.6,1.601,2.7,4.2,2.732,2.723,10.79,9.375
235.0,4845871.523,0.05,1.601,3.407,4.2,2.728,0.0,10.778,0.0

File: UL-PUR_N15-NA10_18650_NCA_23C_0-100_0.5-0.5C_j_cycle_data.csv
Cycle_Index,Test_Time (s),Min_Current (A),Max_Current (A),Min_Voltage (V),Max_Voltage (V),Charge_Capacity (Ah),Discharge_Capacity (Ah),Charge_Energy (Wh),Discharge_Energy (Wh)
1.0,15382.818,-1.6,1.6,2.7,4.2,1.888,3.229,7.605,11.456
3.0,51605.512,-1.6,1.6,2.7,4.2,3.209,3.183,12.405,11.309
5.0,87259.882,-1.6,1.6,2.7,4.2,3.176,3.163,12.278,11.237
7.0,122720.549,-1.6,1.6,2.7,4.2,3.162,3.154,12.231,11.213
9.0,158166.041,-1.6,1.6,2.7,4.2,3.158,3.162,12.217,11.239
11.0,193521.78,-1.6,1.6,2.7,4.2,3.15,3.13,12.185,11.121
13.0,228787.925,-1.6,1.6,2.7,4.2,3.137,3.132,12.14,11.129
15.0,264099.371,-1.6,1.6,2.698,4.2,3.126,3.118,12.106,11.075
17.0,299397.857,-1.6,1.6,2.7,4.2,3.127,3.126,12.105,11.106
19.0,334658.392,-1.6,1.6,2.7,4.2,3.125,3.12,12.099,11.086
21.0,369930.519,-1.6,1.6,2.7,4.2,3.131,3.117,12.116,11.068
23.0,405207.712,-1.6,1.6,2.7,4.2,3.12,3.117,12.081,11.07
25.0,440507.503,-1.6,1.6,2.7,4.2,3.12,3.105,12.081,11.023
27.0,475845.705,-1.6,1.6,2.7,4.2,3.12,3.115,12.08,11.057
29.0,511140.909,-1.6,1.6,2.7,4.2,3.11,3.106,12.047,11.022
31.0,546498.411,-1.6,1.6,2.7,4.2,3.106,3.111,12.035,11.041
33.0,581864.989,-1.6,1.6,2.7,4.2,3.104,3.107,12.028,11.024
35.0,617184.405,-1.6,1.6,2.7,4.2,3.095,3.095,11.997,10.977
37.0,652617.256,-1.6,1.6,2.7,4.2,3.099,3.1,12.012,10.992
39.0,682705.763,-1.6,1.6,2.7,4.2,2.618,2.613,9.994,9.11
41.0,718305.696,-4.746,1.6,2.551,4.2,3.092,3.093,11.992,10.958
43.0,753894.617,-1.6,1.6,2.7,4.2,3.092,3.089,11.993,10.945
45.0,789412.579,-1.6,1.6,2.7,4.2,3.08,3.081,11.952,10.908
47.0,825059.1,-1.6,1.6,2.7,4.2,3.083,3.079,11.963,10.905
49.0,860648.955,-1.682,1.6,2.692,4.2,3.078,3.066,11.945,10.85
51.0,896325.163,-1.648,1.6,2.694,4.2,3.069,3.072,11.916,10.871
53.0,932093.223,-1.6,1.6,2.7,4.2,3.075,3.073,11.936,10.872
55.0,967889.342,-4.671,1.6,2.551,4.2,3.07,3.063,11.919,10.83
57.0,1003729.531,-1.6,1.6,2.7,4.2,3.07,3.077,11.918,10.879
59.0,1033808.538,-1.6,1.6,2.7,4.2,2.577,2.57,9.847,8.932
61.0,1069738.685,-1.6,1.6,2.7,4.2,3.065,3.059,11.904,10.814
63.0,1105658.76,-1.6,1.6,2.7,4.2,3.057,3.053,11.879,10.786
65.0,1135680.759,-1.6,1.6,2.7,4.2,2.527,2.533,9.67,8.784
67.0,1171737.488,-1.6,1.6,2.7,4.2,3.049,3.042,11.855,10.74
69.0,1207856.765,-1.6,1.6,2.7,4.2,3.039,3.039,11.819,10.724
71.0,1243964.483,-1.6,1.6,2.7,4.2,3.034,3.036,11.804,10.715
73.0,1280152.004,-1.6,1.6,2.7,4.2,3.039,3.041,11.82,10.727
75.0,1316390.923,-1.6,1.6,2.7,4.2,3.036,3.035,11.813,10.702
77.0,1352683.389,-1.6,1.6,2.7,4.2,3.033,3.031,11.802,10.688
79.0,1388957.218,-1.6,1.6,2.7,4.2,3.024,3.017,11.772,10.637
81.0,1425385.626,-1.6,1.6,2.7,4.2,3.023,3.029,11.769,10.678
83.0,1461739.913,-1.6,1.6,2.7,4.2,3.023,3.014,11.769,10.618
85.0,1498186.665,-1.6,1.6,2.7,4.2,3.016,3.015,11.75,10.617
87.0,1534652.735,-1.6,1.6,2.7,4.2,3.015,3.016,11.742,10.623
89.0,1571171.821,-1.6,1.6,2.7,4.2,3.019,3.007,11.756,10.586
91.0,1601200.461,-1.6,1.6,2.7,4.2,3.009,3.014,11.724,10.605
93.0,1631271.656,-1.6,1.6,2.7,4.2,2.484,2.481,9.516,8.574
95.0,1667934.156,-1.6,1.6,2.7,4.2,3.01,3.007,11.731,10.581
97.0,1704558.999,-1.728,1.6,2.689,4.2,3.004,3.008,11.709,10.583
99.0,1741276.636,-1.6,1.6,2.7,4.2,2.999,2.985,11.697,10.489
101.0,1778123.786,-1.6,1.6,2.7,4.2,2.988,3.006,11.661,10.567
103.0,1814849.533,-1.6,1.6,2.7,4.2,3.014,2.981,11.745,10.477
105.0,1851722.324,-1.689,1.6,2.691,4.2,2.978,2.98,11.628,10.468
107.0,1881773.177,-1.6,1.6,2.7,4.2,2.444,2.451,9.374,8.454
109.0,1918637.466,-1.6,1.6,2.7,4.2,2.985,2.979,11.647,10.464
111.0,1955577.281,-1.6,1.6,2.7,4.2,2.975,2.978,11.614,10.456
113.0,1992497.722,-1.6,1.6,2.7,4.2,2.986,2.968,11.65,10.414
115.0,2029580.255,-1.6,1.6,2.7,4.2,2.962,2.987,11.574,10.474
117.0,2066634.163,-1.6,1.6,2.7,4.2,2.96,2.958,11.564,10.379
119.0,2103773.166,-1.6,1.6,2.7,4.2,2.959,2.973,11.562,10.432
121.0,2140818.393,-1.6,1.6,2.7,4.2,2.988,2.998,11.654,10.537
123.0,2177779.395,-1.6,1.6,2.7,4.2,2.955,2.955,11.549,10.357
125.0,2214875.516,-1.6,1.6,2.7,4.2,2.983,2.989,11.637,10.497
127.0,2251815.896,-1.6,1.6,2.7,4.2,2.959,2.966,11.558,10.4
129.0,2288939.137,-1.6,1.6,2.7,4.2,2.958,2.972,11.555,10.428
131.0,2325874.955,-1.6,1.6,2.7,4.2,2.999,2.968,11.684,10.408
133.0,2363105.564,-1.6,1.6,2.7,4.2,2.948,2.94,11.53,10.302
135.0,2400351.615,-1.6,1.6,2.698,4.2,2.965,2.975,11.58,10.439
137.0,2437503.559,-1.6,1.6,2.7,4.2,2.956,2.946,11.55,10.319
139.0,2474637.318,-1.6,1.6,2.7,4.201,2.976,2.989,11.615,10.496
141.0,2511720.695,-3.377,1.601,2.609,4.201,2.99,2.991,11.661,10.502
143.0,2549027.377,-1.6,1.6,2.7,4.2,2.96,2.967,11.562,10.402
145.0,2585865.949,-1.6,1.601,2.7,4.201,3.006,2.969,11.705,10.435
147.0,2623174.882,-1.6,1.6,2.7,4.2,2.926,2.932,11.453,10.253
149.0,2660632.555,-1.6,1.6,2.699,4.2,2.942,2.952,11.504,10.339
151.0,2697991.371,-1.6,1.6,2.7,4.2,2.928,2.92,11.453,10.208
153.0,2735397.971,-1.6,1.6,2.7,4.2,2.934,2.935,11.477,10.27
155.0,2765427.861,-1.6,1.6,2.7,4.2,2.934,2.914,11.48,10.183
157.0,2803021.231,-4.209,1.6,2.569,4.2,2.904,2.907,11.381,10.151
159.0,2840497.521,-1.6,1.6,2.7,4.2,2.916,2.911,11.416,10.173
161.0,2878084.764,-1.6,1.6,2.7,4.2,2.911,2.894,11.4,10.105
163.0,2907981.221,-1.6,1.6,2.7,4.2,2.913,2.907,11.414,10.154
165.0,2945600.318,-1.6,1.6,2.7,4.2,2.9,2.886,11.366,10.071
167.0,2983366.744,-1.6,1.6,2.7,4.2,2.885,2.887,11.316,10.078
169.0,3021061.45,-1.6,1.6,2.7,4.2,2.889,2.877,11.325,10.039
171.0,3058855.647,-1.6,1.6,2.7,4.2,2.871,2.873,11.27,10.02
173.0,3096539.961,-1.6,1.6,2.7,4.2,2.88,2.877,11.296,10.031
175.0,3134237.942,-1.6,1.6,2.7,4.2,2.9,2.889,11.36,10.088
177.0,3171964.913,-1.6,1.6,2.7,4.2,2.903,2.915,11.371,10.194
179.0,3209613.811,-1.6,1.6,2.7,4.2,2.921,2.905,11.429,10.159
181.0,3247124.522,-1.6,1.6,2.7,4.201,2.889,2.908,11.325,10.168
183.0,3284642.795,-1.6,1.6,2.7,4.2,2.897,2.855,11.356,9.942
185.0,3322483.141,-1.6,1.6,2.7,4.2,2.848,2.852,11.19,9.932
187.0,3360228.499,-1.6,1.6,2.7,4.2,2.863,2.854,11.235,9.944
189.0,3398094.169,-1.6,1.6,2.7,4.2,2.836,2.84,11.15,9.883
191.0,3435880.726,-1.6,1.6,2.7,4.2,2.853,2.85,11.203,9.929
193.0,3473701.063,-1.6,1.6,2.7,4.2,2.845,2.83,11.178,9.847
195.0,3511577.393,-1.6,1.6,2.7,4.2,2.837,2.844,11.152,9.904
197.0,3541039.95,-1.6,1.6,2.7,4.2,2.232,2.241,8.612,7.645
199.0,3579162.517,-1.6,1.6,2.7,4.2,2.832,2.845,11.139,9.908
201.0,3608777.403,-1.6,1.6,2.7,4.2,2.241,2.259,8.642,7.711
203.0,3646858.453,-1.6,1.6,2.7,4.2,2.826,2.825,11.117,9.827
205.0,3684843.006,-1.6,1.6,2.7,4.2,2.83,2.835,11.127,9.873
207.0,3722448.298,-1.6,1.6,2.7,4.2,2.829,2.816,11.118,9.792
209.0,3760361.93,-1.6,1.6,2.7,4.2,2.818,2.822,11.086,9.82
211.0,3798074.808,-1.6,1.6,2.7,4.2,2.831,2.816,11.125,9.803
213.0,3836056.783,-1.6,1.6,2.7,4.2,2.806,2.815,11.045,9.79
215.0,3873544.626,-1.6,1.6,2.7,4.2,2.825,2.819,11.104,9.811
217.0,3911278.374,-1.6,1.6,2.7,4.2,2.81,2.809,11.053,9.769
219.0,3948988.042,-1.6,1.6,2.7,4.2,2.823,2.82,11.094,9.814
221.0,3986691.002,-1.6,1.6,2.7,4.2,2.802,2.797,11.029,9.717
223.0,4024959.843,-1.6,1.6,2.7,4.2,2.802,2.986,11.028,10.286
225.0,4063301.556,-1.6,1.601,2.7,4.2,2.803,2.786,11.034,9.678
227.0,4092729.391,-1.6,1.6,2.7,4.2,2.179,2.194,8.416,7.473
229.0,4130853.125,-1.6,1.6,2.7,4.2,2.787,2.786,10.978,9.678
231.0,4168662.867,-1.6,1.6,2.7,4.2,2.792,2.787,10.988,9.688
233.0,4206226.205,-1.6,1.6,2.7,4.2,2.791,2.78,10.982,9.645
235.0,4243986.282,-1.6,1.6,2.7,4.2,2.781,2.795,10.958,9.718
237.0,4281627.334,-1.6,1.6,2.7,4.2,2.787,2.791,10.97,9.7
239.0,4319500.95,-1.6,1.6,2.7,4.2,2.763,2.774,10.892,9.628
241.0,4357196.572,-1.6,1.6,2.7,4.2,2.773,2.777,10.923,9.644
243.0,4394895.756,-1.751,1.6,2.688,4.2,2.759,2.766,10.881,9.592
245.0,4432249.017,-1.6,1.6,2.7,4.2,2.764,2.765,10.892,9.591
247.0,4469973.731,-1.6,1.6,2.7,4.2,2.762,2.752,10.886,9.537
249.0,4507793.282,-1.6,1.6,2.7,4.2,2.759,2.758,10.877,9.564
251.0,4545531.398,-1.6,1.6,2.7,4.2,2.761,2.754,10.882,9.552
253.0,4574843.013,-1.6,1.6,2.7,4.2,2.77,2.764,10.924,9.593
255.0,4612804.098,-1.6,1.6,2.7,4.2,2.759,2.754,10.875,9.552
257.0,4650633.249,-1.6,1.6,2.7,4.2,2.752,2.744,10.853,9.513
259.0,4688433.548,-1.6,1.6,2.7,4.2,2.757,2.757,10.863,9.566
261.0,4726036.799,-1.6,1.6,2.7,4.2,2.756,2.743,10.864,9.504
263.0,4763718.451,-1.6,1.6,2.7,4.2,2.735,2.746,10.793,9.519
265.0,4801349.702,-1.6,1.6,2.7,4.2,2.743,2.726,10.816,9.456
267.0,4839136.531,-1.6,1.6,2.7,4.2,2.729,2.722,10.773,9.421
269.0,4876838.473,-1.6,1.6,2.7,4.2,2.73,2.729,10.774,9.454
270.0,4890996.391,-1.6,1.6,3.386,4.2,2.731,0.791,10.778,2.99