Folder: ML-project/Li-ion_Batteries (part 7)

File: UL-PUR_N20-NA6_18650_NCA_23C_0-100_0.5-0.5C_f_cycle_data.csv
Cycle_Index,Test_Time (s),Min_Current (A),Max_Current (A),Min_Voltage (V),Max_Voltage (V),Charge_Capacity (Ah),Discharge_Capacity (Ah),Charge_Energy (Wh),Discharge_Energy (Wh)
1.0,8851.63,-1.6,1.6,2.7,4.191,0.011,3.332,0.023,11.7
3.0,47444.14,-1.6,1.601,2.7,4.2,3.325,3.318,12.821,11.665
5.0,80950.769,-1.6,1.601,2.7,4.2,2.843,2.843,10.798,9.819
7.0,119812.159,-1.6,1.601,2.7,4.2,3.322,3.317,12.812,11.648
9.0,158771.759,-1.6,1.601,2.7,4.2,3.322,3.316,12.813,11.64
11.0,197881.17,-1.6,1.601,2.7,4.2,3.321,3.317,12.812,11.634
13.0,237098.652,-1.6,1.601,2.7,4.2,3.319,3.316,12.81,11.626
15.0,276475.362,-1.6,1.601,2.7,4.2,3.319,3.314,12.809,11.609
17.0,315993.458,-1.6,1.601,2.7,4.2,3.317,3.314,12.807,11.603
19.0,355679.271,-1.6,1.601,2.7,4.2,3.317,3.311,12.806,11.583
21.0,395478.001,-1.6,1.601,2.7,4.2,3.315,3.311,12.802,11.577
23.0,429943.694,-1.6,1.601,2.7,4.2,3.314,3.309,12.804,11.565
25.0,469959.749,-1.6,1.601,2.7,4.2,3.313,3.308,12.799,11.554
27.0,510204.318,-1.6,1.601,2.7,4.2,3.31,3.305,12.796,11.535
29.0,550560.265,-1.6,1.601,2.7,4.2,3.31,3.305,12.795,11.532
31.0,590874.423,-1.6,1.601,2.7,4.2,3.309,3.304,12.789,11.523
33.0,631413.703,-1.6,1.601,2.7,4.2,3.308,3.303,12.79,11.51
35.0,672075.885,-1.6,1.601,2.7,4.2,3.306,3.301,12.784,11.498
37.0,713047.066,-1.6,1.601,2.7,4.2,3.302,3.298,12.777,11.479
39.0,754116.14,-1.6,1.601,2.7,4.2,3.302,3.297,12.776,11.472
41.0,795356.454,-1.6,1.601,2.7,4.2,3.298,3.294,12.769,11.447
43.0,836662.403,-1.6,1.601,2.7,4.2,3.297,3.294,12.765,11.447
45.0,878100.731,-1.6,1.601,2.7,4.2,3.296,3.29,12.759,11.426
47.0,919796.294,-1.6,1.601,2.7,4.2,3.293,3.289,12.758,11.417
49.0,955314.778,-1.6,1.601,2.7,4.2,3.291,3.287,12.752,11.402
51.0,997292.902,-1.6,1.601,2.7,4.2,3.289,3.284,12.746,11.381
53.0,1039686.737,-1.6,1.601,2.7,4.2,3.285,3.28,12.739,11.351
55.0,1082195.551,-1.6,1.601,2.7,4.2,3.284,3.279,12.734,11.345
57.0,1124891.86,-1.6,1.601,2.7,4.2,3.28,3.275,12.726,11.321
59.0,1167474.176,-1.6,1.601,2.7,4.2,3.282,3.276,12.726,11.329
61.0,1210277.554,-1.6,1.601,2.7,4.2,3.278,3.274,12.719,11.314
63.0,1253328.605,-1.6,1.601,2.7,4.2,3.277,3.271,12.717,11.294
65.0,1296425.918,-1.6,1.601,2.7,4.2,3.275,3.27,12.708,11.286
67.0,1339763.392,-1.6,1.601,2.7,4.2,3.272,3.266,12.703,11.262
69.0,1383639.422,-1.6,1.601,2.7,4.2,3.268,3.263,12.701,11.231
71.0,1427591.474,-1.6,1.601,2.7,4.2,3.266,3.26,12.692,11.219
73.0,1471704.344,-1.6,1.601,2.7,4.2,3.264,3.259,12.686,11.208
75.0,1516191.542,-1.6,1.601,2.7,4.2,3.262,3.257,12.685,11.193
77.0,1560159.108,-1.6,1.601,2.7,4.2,3.265,3.26,12.681,11.215
79.0,1597105.051,-1.6,1.601,2.7,4.2,2.691,2.689,10.279,9.054
81.0,1634418.849,-1.6,1.601,2.7,4.2,3.261,3.254,12.675,11.169
83.0,1679927.962,-1.6,1.601,2.7,4.2,3.254,3.248,12.659,11.132
85.0,1726107.441,-1.6,1.601,2.7,4.2,3.249,3.241,12.647,11.097
87.0,1772607.366,-1.6,1.601,2.7,4.2,3.241,3.233,12.623,11.061
89.0,1819489.726,-1.6,1.601,2.7,4.2,3.233,3.226,12.603,11.022
91.0,1865182.864,-1.6,1.602,2.7,4.2,3.227,3.219,12.579,10.999
93.0,1912100.615,-1.6,1.601,2.7,4.2,3.221,3.212,12.558,10.97
95.0,1958989.945,-1.6,1.601,2.7,4.2,3.213,3.206,12.531,10.942
97.0,1997927.798,-1.6,1.601,2.7,4.2,3.211,3.197,12.533,10.886
99.0,2045293.961,-1.6,1.601,2.7,4.2,3.201,3.197,12.5,10.912
101.0,2091984.299,-1.601,1.601,2.7,4.2,3.201,3.194,12.48,10.905
103.0,2138714.274,-1.6,1.601,2.7,4.2,3.195,3.19,12.471,10.89
105.0,2185632.845,-1.6,1.601,2.7,4.201,3.191,3.185,12.454,10.862
107.0,2232848.688,-1.601,1.601,2.7,4.2,3.183,3.174,12.426,10.799
109.0,2280845.275,-1.6,1.601,2.7,4.2,3.176,3.168,12.414,10.769
111.0,2320001.087,-1.6,1.601,2.7,4.2,3.176,3.164,12.426,10.748
113.0,2368449.813,-1.6,1.601,2.7,4.2,3.163,3.156,12.378,10.715
115.0,2416710.152,-1.6,1.601,2.7,4.2,3.159,3.151,12.36,10.698
117.0,2465350.875,-1.6,1.601,2.7,4.2,3.152,3.144,12.338,10.657
119.0,2513726.835,-1.6,1.601,2.7,4.2,3.15,3.144,12.326,10.675
121.0,2562193.8,-1.6,1.601,2.7,4.2,3.146,3.138,12.311,10.643
123.0,2610660.808,-1.6,1.601,2.7,4.2,3.14,3.133,12.291,10.62
125.0,2659082.969,-1.6,1.601,2.7,4.2,3.136,3.128,12.277,10.605
127.0,2707787.881,-1.6,1.601,2.7,4.2,3.132,3.124,12.266,10.583
129.0,2756773.131,-1.6,1.601,2.7,4.2,3.127,3.119,12.253,10.556
131.0,2806257.51,-1.6,1.601,2.7,4.2,3.118,3.111,12.228,10.515
133.0,2855454.732,-1.6,1.601,2.7,4.2,3.117,3.112,12.221,10.535
135.0,2904368.277,-1.6,1.601,2.7,4.2,3.114,3.107,12.204,10.515
137.0,2953151.951,-1.6,1.601,2.7,4.2,3.11,3.104,12.19,10.504
139.0,3001878.956,-1.6,1.601,2.7,4.2,3.106,3.099,12.173,10.489
141.0,3050793.394,-1.6,1.601,2.7,4.2,3.104,3.096,12.162,10.469
143.0,3100338.817,-1.6,1.601,2.7,4.2,3.092,3.086,12.139,10.413
145.0,3150164.748,-1.6,1.601,2.7,4.2,3.088,3.081,12.124,10.386
147.0,3199967.383,-1.6,1.601,2.7,4.2,3.081,3.074,12.101,10.36
149.0,3249973.41,-1.6,1.601,2.7,4.2,3.074,3.068,12.079,10.329
151.0,3300242.742,-1.6,1.601,2.7,4.2,3.07,3.063,12.063,10.314
153.0,3339928.244,-1.6,1.601,2.7,4.2,2.383,2.388,9.184,7.847
155.0,3379470.93,-1.6,1.601,2.7,4.2,3.07,3.056,12.072,10.29
157.0,3429870.111,-1.6,1.601,2.7,4.2,3.054,3.046,12.007,10.247
159.0,3480304.986,-1.6,1.601,2.7,4.2,3.05,3.043,11.994,10.236
161.0,3530593.785,-1.6,1.601,2.7,4.2,3.045,3.037,11.973,10.213
163.0,3570278.492,-1.6,1.601,2.7,4.2,2.684,2.664,10.621,9.184
165.0,3608794.407,-1.6,1.601,2.7,4.2,2.66,2.662,10.53,9.172
167.0,3647097.102,-1.6,1.601,2.7,4.2,2.655,2.647,10.512,9.118
169.0,3685278.843,-1.6,1.601,2.653,4.2,2.648,2.64,10.479,9.091
171.0,3723349.259,-1.6,1.601,2.7,4.2,2.632,2.626,10.424,9.043
173.0,3761665.765,-1.6,1.601,2.7,4.2,2.636,2.63,10.437,9.054
175.0,3790175.384,-1.6,1.601,2.546,4.2,1.96,1.971,7.605,6.635
177.0,3828616.517,-1.601,1.601,2.7,4.2,2.624,2.623,10.397,9.025
179.0,3866521.018,-1.6,1.601,2.7,4.2,2.621,2.608,10.381,8.976
181.0,3904581.093,-1.6,1.601,2.7,4.2,2.618,2.607,10.372,8.968
183.0,3942528.548,-1.6,1.601,2.7,4.2,2.62,2.603,10.381,8.957
185.0,3980432.311,-1.6,1.601,2.548,4.2,2.607,2.598,10.332,8.936
187.0,4018369.407,-1.6,1.601,2.7,4.2,2.608,2.597,10.337,8.933
189.0,4056223.242,-1.6,1.601,2.7,4.2,2.599,2.592,10.305,8.91
191.0,4094154.967,-1.6,1.601,2.7,4.2,2.605,2.597,10.328,8.934
193.0,4131853.354,-1.601,1.601,2.7,4.201,2.615,2.545,10.358,8.772
195.0,4169666.347,-1.6,1.601,2.7,4.201,2.624,2.617,10.388,9.011
197.0,4207526.514,-1.6,1.601,2.7,4.201,2.624,2.627,10.388,9.047
199.0,4245417.722,-1.6,1.601,2.7,4.2,2.608,2.534,10.318,8.672
201.0,4283658.456,-1.6,1.6,2.7,4.2,2.525,2.541,10.051,8.688
203.0,4321673.393,-1.6,1.601,2.7,4.2,2.577,2.577,10.232,8.847
205.0,4359399.928,-1.6,1.601,2.7,4.2,2.585,2.565,10.256,8.803
207.0,4397460.452,-1.6,1.601,2.7,4.2,2.561,2.561,10.177,8.786
209.0,4435469.029,-1.6,1.601,2.7,4.2,2.551,2.541,10.14,8.702
211.0,4473495.996,-1.6,1.601,2.7,4.2,2.548,2.553,10.124,8.75
213.0,4511430.125,-1.6,1.601,2.7,4.2,2.562,2.561,10.178,8.777
215.0,4549311.31,-1.6,1.601,2.7,4.2,2.567,2.572,10.196,8.823
217.0,4587333.518,-1.6,1.601,2.7,4.2,2.577,2.567,10.226,8.803
219.0,4625177.409,-1.6,1.601,2.7,4.2,2.56,2.536,10.165,8.68
221.0,4663268.181,-1.6,1.601,2.7,4.2,2.544,2.538,10.117,8.691
222.0,4681251.872,-1.6,1.601,3.117,4.2,2.541,2.176,10.105,7.623

File: UL-PUR_N20-OV1_18650_NCA_23C_0-100_0.5-0.5C_a_cycle_data.csv
Cycle_Index,Test_Time (s),Min_Current (A),Max_Current (A),Min_Voltage (V),Max_Voltage (V),Charge_Capacity (Ah),Discharge_Capacity (Ah),Charge_Energy (Wh),Discharge_Energy (Wh)
1.0,20859.928,-1.601,1.599,2.699,4.2,1.934,3.3,7.815,11.534
3.0,69324.815,-1.601,1.599,2.699,4.2,3.419,3.264,13.228,11.398
5.0,117717.986,-1.601,1.599,2.699,4.2,3.401,3.266,13.163,11.42
7.0,166142.446,-1.601,1.6,2.699,4.2,3.398,3.257,13.154,11.37
9.0,214687.041,-1.601,1.599,2.699,4.2,3.392,3.26,13.13,11.386
11.0,263705.563,-1.601,1.604,2.699,4.2,3.392,3.256,13.137,11.357
13.0,312487.119,-1.601,1.599,2.699,4.2,3.392,3.259,13.135,11.37
15.0,362079.138,-1.601,1.599,2.699,4.2,3.386,3.249,13.117,11.314
17.0,411741.619,-1.601,1.599,2.699,4.2,3.387,3.24,13.119,11.28
19.0,461941.388,-1.601,1.599,2.699,4.2,3.378,3.244,13.105,11.285
21.0,510674.304,-1.601,1.599,2.699,4.2,3.383,3.239,13.113,11.26
23.0,555089.993,-1.601,1.599,2.699,4.2,3.377,3.238,13.092,11.258
25.0,599772.467,-1.601,1.599,2.699,4.2,3.375,3.231,13.092,11.218
27.0,644795.64,-1.601,1.599,2.699,4.2,3.371,3.232,13.081,11.222
29.0,690246.733,-1.601,1.599,2.699,4.2,3.361,3.22,13.063,11.162
31.0,735534.894,-1.601,1.599,2.699,4.2,3.363,3.229,13.061,11.202
33.0,781219.398,-1.601,1.599,2.699,4.2,3.352,3.216,13.033,11.137
35.0,826678.031,-1.601,1.599,2.699,4.2,3.357,3.221,13.043,11.164
37.0,872798.044,-1.601,1.599,2.699,4.2,3.35,3.21,13.024,11.104
39.0,918707.244,-1.601,1.599,2.699,4.2,3.353,3.213,13.032,11.119
41.0,965180.788,-1.601,1.599,2.699,4.2,3.344,3.214,13.01,11.117
43.0,1011014.208,-1.601,1.599,2.699,4.2,3.354,3.219,13.032,11.147
45.0,1057850.438,-1.601,1.599,2.699,4.2,3.344,3.209,13.012,11.089
47.0,1104117.405,-1.601,1.599,2.699,4.2,3.349,3.207,13.018,11.083
49.0,1150874.642,-1.601,1.599,2.699,4.2,3.348,3.2,13.029,11.052
51.0,1197873.633,-1.601,1.599,2.699,4.2,3.351,3.194,13.033,11.011
53.0,1245134.643,-1.601,1.599,2.699,4.2,3.345,3.197,13.021,11.041
55.0,1292496.919,-1.601,1.599,2.699,4.2,3.341,3.189,13.017,10.985
57.0,1339956.718,-1.601,1.599,2.699,4.2,3.343,3.196,13.019,11.02
59.0,1387590.565,-1.601,1.6,2.699,4.2,3.336,3.184,12.998,10.96
61.0,1435485.096,-1.601,1.599,2.699,4.2,3.336,3.184,13.002,10.965
63.0,1483535.646,-1.601,1.599,2.699,4.2,3.331,3.182,12.989,10.94
65.0,1531447.02,-1.601,1.599,2.699,4.2,3.333,3.176,12.988,10.93
67.0,1580148.095,-1.601,1.599,2.699,4.2,3.32,3.177,12.955,10.909
69.0,1628638.894,-1.601,1.599,2.699,4.2,3.327,3.171,12.969,10.875
71.0,1677664.238,-1.601,1.599,2.699,4.2,3.318,3.173,12.955,10.888
73.0,1726659.567,-1.601,1.599,2.699,4.2,3.322,3.165,12.973,10.844
75.0,1775435.241,-1.601,1.599,2.699,4.2,3.317,3.171,12.95,10.881
77.0,1824361.237,-1.601,1.599,2.699,4.2,3.31,3.163,12.93,10.836
79.0,1873509.715,-1.601,1.599,2.699,4.2,3.317,3.167,12.951,10.855
81.0,1922737.671,-1.601,1.599,2.699,4.2,3.312,3.162,12.943,10.831
83.0,1971954.693,-1.601,1.599,2.699,4.2,3.311,3.156,12.932,10.797
85.0,2021932.746,-1.601,1.599,2.699,4.2,3.312,3.158,12.944,10.805
87.0,2071659.618,-1.601,1.599,2.699,4.2,3.307,3.156,12.925,10.788
89.0,2121014.458,-1.601,1.599,2.699,4.2,3.304,3.155,12.918,10.786
91.0,2170670.945,-1.601,1.599,2.699,4.2,3.302,3.152,12.912,10.766
93.0,2220229.034,-1.601,1.599,2.699,4.2,3.308,3.156,12.926,10.796
95.0,2270250.2,-1.601,1.599,2.699,4.2,3.302,3.15,12.922,10.754
97.0,2320524.028,-1.601,1.599,2.699,4.2,3.299,3.139,12.903,10.703
99.0,2370820.573,-1.601,1.599,2.699,4.2,3.299,3.144,12.911,10.724
101.0,2421626.11,-1.601,1.599,2.699,4.2,3.294,3.135,12.899,10.671
103.0,2472087.245,-1.601,1.599,2.699,4.2,3.297,3.142,12.902,10.705
105.0,2522716.707,-1.601,1.599,2.699,4.2,3.284,3.135,12.87,10.669
107.0,2573065.424,-1.601,1.599,2.699,4.2,3.294,3.136,12.893,10.68
109.0,2623819.604,-1.601,1.599,2.699,4.2,3.288,3.139,12.877,10.695
111.0,2674551.8,-1.601,1.599,2.699,4.2,3.287,3.131,12.88,10.654
113.0,2725851.338,-1.601,1.599,2.699,4.2,3.29,3.123,12.886,10.605
115.0,2777248.612,-1.601,1.6,2.699,4.2,3.279,3.122,12.859,10.592
117.0,2829118.225,-1.601,1.599,2.699,4.2,3.284,3.118,12.872,10.586
119.0,2880770.816,-1.601,1.599,2.699,4.2,3.272,3.12,12.84,10.583
121.0,2932525.92,-1.613,1.599,2.699,4.2,3.274,3.106,12.84,10.517
123.0,2985044.218,-1.601,1.599,2.699,4.2,3.275,3.115,12.853,10.56
125.0,3037615.311,-1.601,1.599,2.699,4.2,3.267,3.103,12.828,10.498
127.0,3090173.041,-1.601,1.6,2.699,4.2,3.261,3.105,12.806,10.508
129.0,3142802.557,-1.601,1.599,2.699,4.2,3.259,3.109,12.796,10.524
131.0,3195224.542,-1.601,1.599,2.699,4.2,3.255,3.103,12.784,10.494
133.0,3247742.799,-1.601,1.609,2.699,4.2,3.256,3.101,12.784,10.485
135.0,3300355.253,-1.601,1.599,2.699,4.2,3.249,3.097,12.768,10.463
137.0,3352829.73,-1.601,1.599,2.699,4.2,3.25,3.093,12.767,10.448
139.0,3405795.395,-1.601,1.599,2.699,4.2,3.248,3.098,12.77,10.473
141.0,3458538.952,-1.601,1.599,2.699,4.2,3.243,3.085,12.748,10.408
143.0,3511413.434,-1.601,1.599,2.699,4.2,3.248,3.089,12.761,10.431
145.0,3564765.735,-1.609,1.599,2.699,4.2,3.245,3.08,12.756,10.38
147.0,3618098.805,-1.601,1.599,2.699,4.2,3.24,3.089,12.739,10.409
149.0,3671609.606,-1.601,1.599,2.699,4.2,3.238,3.09,12.741,10.427
151.0,3724770.265,-1.601,1.599,2.699,4.2,3.23,3.086,12.703,10.413
153.0,3777481.654,-1.601,1.599,2.699,4.2,3.234,3.088,12.705,10.42
155.0,3830033.656,-1.601,1.599,2.699,4.2,3.232,3.085,12.696,10.413
157.0,3882828.183,-1.601,1.599,2.699,4.2,3.233,3.078,12.704,10.377
159.0,3936111.022,-1.601,1.599,2.699,4.2,3.228,3.079,12.692,10.384
161.0,3989456.192,-1.601,1.599,2.699,4.2,3.221,3.073,12.673,10.346
163.0,4042823.307,-1.601,1.599,2.699,4.2,3.223,3.069,12.67,10.33
165.0,4096534.107,-1.601,1.599,2.699,4.2,3.214,3.067,12.65,10.326
167.0,4150588.801,-1.601,1.599,2.699,4.2,3.22,3.055,12.679,10.264
169.0,4205011.325,-1.601,1.599,2.699,4.2,3.225,3.064,12.7,10.32
171.0,4259585.233,-1.601,1.599,2.699,4.2,3.218,3.054,12.672,10.269
173.0,4314124.439,-1.601,1.599,2.699,4.2,3.223,3.053,12.684,10.275
175.0,4368789.783,-1.601,1.599,2.699,4.2,3.219,3.053,12.677,10.27
177.0,4423520.912,-1.601,1.599,2.699,4.2,3.217,3.049,12.672,10.245
179.0,4478120.43,-1.601,1.599,2.699,4.2,3.216,3.05,12.66,10.25
181.0,4533200.759,-1.601,1.599,2.699,4.2,3.203,3.04,12.63,10.2
183.0,4589098.089,-1.601,1.599,2.699,4.2,3.209,3.035,12.651,10.16
185.0,4644563.656,-1.601,1.599,2.699,4.2,3.204,3.036,12.634,10.182
187.0,4700581.503,-1.601,1.599,2.699,4.2,3.193,3.024,12.611,10.126
189.0,4756650.69,-1.601,1.599,2.699,4.2,3.193,3.016,12.602,10.08
191.0,4812790.921,-1.601,1.599,2.699,4.2,3.195,3.022,12.604,10.129
193.0,4869084.143,-1.601,1.599,2.699,4.2,3.192,3.022,12.604,10.126
195.0,4924616.701,-1.601,1.599,2.699,4.2,3.193,3.028,12.592,10.157
197.0,4979844.226,-1.601,1.599,2.699,4.2,3.19,3.022,12.582,10.123
199.0,5036046.633,-1.601,1.599,2.699,4.2,3.184,3.016,12.581,10.091
201.0,5092090.875,-1.601,1.599,2.699,4.2,3.183,3.011,12.567,10.072
203.0,5148978.024,-1.601,1.599,2.699,4.2,3.184,3.008,12.58,10.061
205.0,5204657.616,-1.601,1.599,2.699,4.2,3.184,3.013,12.565,10.092
207.0,5261098.341,-1.601,1.599,2.699,4.2,3.182,3.003,12.567,10.037
209.0,5317602.514,-1.601,1.599,2.699,4.2,3.173,3.001,12.537,10.029
211.0,5374685.781,-1.601,1.599,2.699,4.2,3.173,2.998,12.548,10.01
213.0,5432034.789,-1.601,1.599,2.699,4.2,3.175,2.996,12.548,10.011
215.0,5488796.657,-1.601,1.599,2.699,4.2,3.168,2.994,12.525,10.008
217.0,5545656.413,-1.601,1.599,2.699,4.2,3.164,2.992,12.512,9.988
219.0,5603196.21,-1.601,1.599,2.699,4.2,3.167,2.989,12.523,9.975
221.0,5660134.749,-1.601,1.599,2.699,4.2,3.15,2.987,12.481,9.967
223.0,5716100.273,-1.601,1.599,2.699,4.2,3.169,2.997,12.507,10.031
225.0,5772035.816,-1.601,1.599,2.699,4.2,3.154,2.997,12.467,10.033
227.0,5826906.254,-1.601,1.599,2.699,4.2,3.162,3.0,12.479,10.051
229.0,5882880.753,-1.601,1.599,2.699,4.2,3.153,2.976,12.461,9.908
231.0,5940159.574,-1.601,1.599,2.699,4.2,3.147,2.976,12.455,9.917
233.0,5998094.917,-1.601,1.599,2.699,4.2,3.145,2.97,12.459,9.888
235.0,6054886.989,-1.601,1.599,2.699,4.2,3.131,2.963,12.397,9.861
237.0,6112670.269,-1.601,1.599,2.699,4.2,3.139,2.966,12.436,9.871
239.0,6169800.211,-1.601,1.599,2.699,4.2,3.137,2.976,12.418,9.929
241.0,6226650.264,-1.601,1.599,2.699,4.2,3.135,2.962,12.41,9.862
243.0,6283307.555,-1.601,1.599,2.699,4.2,3.135,2.965,12.409,9.889
245.0,6340404.844,-1.601,1.599,2.699,4.2,3.13,2.962,12.394,9.86
247.0,6398338.825,-1.601,1.599,2.699,4.2,3.133,2.955,12.41,9.819
249.0,6456422.285,-1.609,1.599,2.699,4.2,3.127,2.954,12.394,9.82
251.0,6514090.47,-1.601,1.599,2.699,4.2,3.125,2.957,12.375,9.843
253.0,6570910.54,-1.601,1.599,2.699,4.2,3.124,2.953,12.372,9.826
255.0,6628005.163,-1.601,1.599,2.699,4.2,3.122,2.951,12.364,9.821
257.0,6684213.725,-1.601,1.599,2.699,4.2,3.127,2.961,12.367,9.877
259.0,6740684.78,-1.601,1.599,2.699,4.2,3.116,2.943,12.341,9.779
261.0,6797318.289,-1.601,1.599,2.699,4.2,3.11,2.942,12.324,9.779
263.0,6855009.459,-1.601,1.599,2.699,4.2,3.116,2.942,12.349,9.779
265.0,6912389.656,-1.601,1.599,2.699,4.2,3.106,2.933,12.314,9.736
267.0,6969968.712,-1.601,1.599,2.699,4.2,3.109,2.935,12.323,9.754
269.0,7027975.805,-1.601,1.599,2.699,4.2,3.111,2.933,12.337,9.741
271.0,7086048.543,-1.601,1.599,2.699,4.2,3.108,2.922,12.325,9.685
273.0,7144515.787,-1.601,1.599,2.699,4.2,3.114,2.93,12.357,9.725
275.0,7197620.803,-1.601,1.599,2.7,4.2,3.101,2.499,12.312,8.542
277.0,7243370.94,-1.601,1.599,2.7,4.2,2.655,2.516,10.605,8.567
279.0,7288785.05,-1.601,1.599,2.7,4.2,2.64,2.495,10.558,8.502
281.0,7334450.027,-1.62,1.599,2.699,4.2,2.654,2.493,10.601,8.487
283.0,7380729.317,-1.601,1.599,2.7,4.2,2.637,2.49,10.548,8.47
285.0,7426282.349,-1.601,1.599,2.7,4.2,2.63,2.477,10.514,8.417
287.0,7472869.246,-1.601,1.599,2.7,4.2,2.632,2.495,10.53,8.486
289.0,7519301.419,-1.601,1.599,2.7,4.2,2.626,2.458,10.505,8.353
291.0,7565101.039,-1.621,1.599,2.699,4.2,2.613,2.489,10.455,8.458
293.0,7611512.628,-1.601,1.599,2.7,4.2,2.616,2.458,10.473,8.355
295.0,7657612.986,-1.601,1.599,2.7,4.2,2.617,2.484,10.471,8.442
297.0,7702817.005,-1.601,1.599,2.7,4.2,2.599,2.455,10.409,8.338
299.0,7747752.468,-1.601,1.599,2.7,4.2,2.591,2.486,10.371,8.451
301.0,7771185.141,1.599,1.599,3.447,3.751,0.339,0.0,1.248,0.0